ExperimentName,Subject,Session,Age,Clock.Information,DataFile.Basename,Display.RefreshRate,ExperimentVersion,Group,RandomSeed,RuntimeCapabilities,RuntimeVersion,RuntimeVersionExpected,SessionDate,SessionStartDateTimeUtc,SessionTime,SessionTimeUtc,Sex,StudioVersion,Block,List1,List1.Cycle,List1.Sample,Procedure[Block],Running[Block],Trial,Condition,ConResp[Trial],PracStim,PracStim.Cycle,PracStim.Sample,Procedure[Trial],RespK.ACC[Trial],RespK.CRESP[Trial],RespK.DurationError[Trial],RespK.OnsetDelay[Trial],RespK.OnsetTime[Trial],RespK.OnsetToOnsetTime[Trial],RespK.RESP[Trial],RespK.RT[Trial],RespK.RTTime[Trial],Running[Trial],Scenario[Trial],SoundFile[Trial],Speaker[Trial],SpeakerBlocks,SpeakerBlocks.Cycle,SpeakerBlocks.Sample,SpeakerGender,SpeakerNum,SubTrial,ConResp[SubTrial],F0Level,F0LevelNum,IntLevel,IntLevelNum,Procedure[SubTrial],RespK.ACC[SubTrial],RespK.CRESP[SubTrial],RespK.DurationError[SubTrial],RespK.OnsetDelay[SubTrial],RespK.OnsetTime[SubTrial],RespK.OnsetToOnsetTime[SubTrial],RespK.RESP[SubTrial],RespK.RT[SubTrial],RespK.RTTime[SubTrial],Running[SubTrial],Scenario[SubTrial],SoundFile[SubTrial],Speaker[SubTrial],StimList,StimList.Cycle,StimList.Sample,StimNum
KoreanPoliteness_F0INT_KOR,1,2,22,"<?xml version=""1.0""?>\n<Clock xmlns:dt=""urn:schemas-microsoft-com:datatypes""><Description dt:dt=""string"">E-Prime Primary Realtime Clock</Description><StartTime><Timestamp dt:dt=""int"">0</Timestamp><DateUtc dt:dt=""string"">2016-12-06T02:02:57Z</DateUtc></StartTime><FrequencyChanges><FrequencyChange><Frequency dt:dt=""r8"">2539101</Frequency><Timestamp dt:dt=""r8"">8252178452</Timestamp><Current dt:dt=""r8"">0</Current><DateUtc dt:dt=""string"">2016-12-06T02:02:57Z</DateUtc></FrequencyChange></FrequencyChanges></Clock>\n",KoreanPoliteness_F0INT_KOR-001-1,60.145,1.0.0.0,1,-337277273,Professional,2.0.10.353,2.0.10.353,12/06/2016,2016-12-06 __ 2:02:58,11:02:58,,female,2.0.10.248,2,2,1,2,Test,List1,1,,,,,,BlockProc,,,,,,,,,,SpeakerBlocks,,,,3,1,1,M,3,1,8,Low,1,Quie,1,TrialProc,0,8,-999999,20,323382,0,2,1373,324755,StimList,2,M_3_2_con_Low_Quie.wav,3,15,1,1,15
KoreanPoliteness_F0INT_KOR,1,2,22,"<?xml version=""1.0""?>\n<Clock xmlns:dt=""urn:schemas-microsoft-com:datatypes""><Description dt:dt=""string"">E-Prime Primary Realtime Clock</Description><StartTime><Timestamp dt:dt=""int"">0</Timestamp><DateUtc dt:dt=""string"">2016-12-06T02:02:57Z</DateUtc></StartTime><FrequencyChanges><FrequencyChange><Frequency dt:dt=""r8"">2539101</Frequency><Timestamp dt:dt=""r8"">8252178452</Timestamp><Current dt:dt=""r8"">0</Current><DateUtc dt:dt=""string"">2016-12-06T02:02:57Z</DateUtc></FrequencyChange></FrequencyChanges></Clock>\n",KoreanPoliteness_F0INT_KOR-001-1,60.145,1.0.0.0,1,-337277273,Professional,2.0.10.353,2.0.10.353,12/06/2016,2016-12-06 __ 2:02:58,11:02:58,,female,2.0.10.248,2,2,1,2,Test,List1,1,,,,,,BlockProc,,,,,,,,,,SpeakerBlocks,,,,3,1,1,M,3,2,8,Low,1,Neut,2,TrialProc,0,8,-999999,29,328054,0,2,573,328627,StimList,6,M_3_6_con_Low_Neut.wav,3,50,1,2,50
KoreanPoliteness_F0INT_KOR,1,2,22,"<?xml version=""1.0""?>\n<Clock xmlns:dt=""urn:schemas-microsoft-com:datatypes""><Description dt:dt=""string"">E-Prime Primary Realtime Clock</Description><StartTime><Timestamp dt:dt=""int"">0</Timestamp><DateUtc dt:dt=""string"">2016-12-06T02:02:57Z</DateUtc></StartTime><FrequencyChanges><FrequencyChange><Frequency dt:dt=""r8"">2539101</Frequency><Timestamp dt:dt=""r8"">8252178452</Timestamp><Current dt:dt=""r8"">0</Current><DateUtc dt:dt=""string"">2016-12-06T02:02:57Z</DateUtc></FrequencyChange></FrequencyChanges></Clock>\n",KoreanPoliteness_F0INT_KOR-001-1,60.145,1.0.0.0,1,-337277273,Professional,2.0.10.353,2.0.10.353,12/06/2016,2016-12-06 __ 2:02:58,11:02:58,,female,2.0.10.248,2,2,1,2,Test,List1,1,,,,,,BlockProc,,,,,,,,,,SpeakerBlocks,,,,3,1,1,M,3,3,8,Low,1,Quie,1,TrialProc,0,8,-999999,16,332277,0,2,622,332899,StimList,5,M_3_5_con_Low_Quie.wav,3,42,1,3,42
KoreanPoliteness_F0INT_KOR,1,2,22,"<?xml version=""1.0""?>\n<Clock xmlns:dt=""urn:schemas-microsoft-com:datatypes""><Description dt:dt=""string"">E-Prime Primary Realtime Clock</Description><StartTime><Timestamp dt:dt=""int"">0</Timestamp><DateUtc dt:dt=""string"">2016-12-06T02:02:57Z</DateUtc></StartTime><FrequencyChanges><FrequencyChange><Frequency dt:dt=""r8"">2539101</Frequency><Timestamp dt:dt=""r8"">8252178452</Timestamp><Current dt:dt=""r8"">0</Current><DateUtc dt:dt=""string"">2016-12-06T02:02:57Z</DateUtc></FrequencyChange></FrequencyChanges></Clock>\n",KoreanPoliteness_F0INT_KOR-001-1,60.145,1.0.0.0,1,-337277273,Professional,2.0.10.353,2.0.10.353,12/06/2016,2016-12-06 __ 2:02:58,11:02:58,,female,2.0.10.248,2,2,1,2,Test,List1,1,,,,,,BlockProc,,,,,,,,,,SpeakerBlocks,,,,3,1,1,M,3,4,8,Low,1,Loud,3,TrialProc,1,8,-999999,28,336051,0,8,327,336378,StimList,2,M_3_2_con_Low_Loud.wav,3,13,1,4,13
KoreanPoliteness_F0INT_KOR,1,2,22,"<?xml version=""1.0""?>\n<Clock xmlns:dt=""urn:schemas-microsoft-com:datatypes""><Description dt:dt=""string"">E-Prime Primary Realtime Clock</Description><StartTime><Timestamp dt:dt=""int"">0</Timestamp><DateUtc dt:dt=""string"">2016-12-06T02:02:57Z</DateUtc></StartTime><FrequencyChanges><FrequencyChange><Frequency dt:dt=""r8"">2539101</Frequency><Timestamp dt:dt=""r8"">8252178452</Timestamp><Current dt:dt=""r8"">0</Current><DateUtc dt:dt=""string"">2016-12-06T02:02:57Z</DateUtc></FrequencyChange></FrequencyChanges></Clock>\n",KoreanPoliteness_F0INT_KOR-001-1,60.145,1.0.0.0,1,-337277273,Professional,2.0.10.353,2.0.10.353,12/06/2016,2016-12-06 __ 2:02:58,11:02:58,,female,2.0.10.248,2,2,1,2,Test,List1,1,,,,,,BlockProc,,,,,,,,,,SpeakerBlocks,,,,3,1,1,M,3,5,8,High,3,Loud,3,TrialProc,1,8,-999999,15,340008,0,8,728,340736,StimList,6,M_3_6_con_High_Loud.wav,3,46,1,5,46
KoreanPoliteness_F0INT_KOR,1,2,22,"<?xml version=""1.0""?>\n<Clock xmlns:dt=""urn:schemas-microsoft-com:datatypes""><Description dt:dt=""string"">E-Prime Primary Realtime Clock</Description><StartTime><Timestamp dt:dt=""int"">0</Timestamp><DateUtc dt:dt=""string"">2016-12-06T02:02:57Z</DateUtc></StartTime><FrequencyChanges><FrequencyChange><Frequency dt:dt=""r8"">2539101</Frequency><Timestamp dt:dt=""r8"">8252178452</Timestamp><Current dt:dt=""r8"">0</Current><DateUtc dt:dt=""string"">2016-12-06T02:02:57Z</DateUtc></FrequencyChange></FrequencyChanges></Clock>\n",KoreanPoliteness_F0INT_KOR-001-1,60.145,1.0.0.0,1,-337277273,Professional,2.0.10.353,2.0.10.353,12/06/2016,2016-12-06 __ 2:02:58,11:02:58,,female,2.0.10.248,2,2,1,2,Test,List1,1,,,,,,BlockProc,,,,,,,,,,SpeakerBlocks,,,,3,1,1,M,3,6,8,Mid,2,Quie,1,TrialProc,0,8,-999999,28,345179,0,2,1508,346687,StimList,3,M_3_3_con_Mid_Quie.wav,3,27,1,6,27
KoreanPoliteness_F0INT_KOR,1,2,22,"<?xml version=""1.0""?>\n<Clock xmlns:dt=""urn:schemas-microsoft-com:datatypes""><Description dt:dt=""string"">E-Prime Primary Realtime Clock</Description><StartTime><Timestamp dt:dt=""int"">0</Timestamp><DateUtc dt:dt=""string"">2016-12-06T02:02:57Z</DateUtc></StartTime><FrequencyChanges><FrequencyChange><Frequency dt:dt=""r8"">2539101</Frequency><Timestamp dt:dt=""r8"">8252178452</Timestamp><Current dt:dt=""r8"">0</Current><DateUtc dt:dt=""string"">2016-12-06T02:02:57Z</DateUtc></FrequencyChange></FrequencyChanges></Clock>\n",KoreanPoliteness_F0INT_KOR-001-1,60.145,1.0.0.0,1,-337277273,Professional,2.0.10.353,2.0.10.353,12/06/2016,2016-12-06 __ 2:02:58,11:02:58,,female,2.0.10.248,2,2,1,2,Test,List1,1,,,,,,BlockProc,,,,,,,,,,SpeakerBlocks,,,,3,1,1,M,3,7,8,Low,1,Loud,3,TrialProc,1,8,-999999,26,349818,0,8,1475,351293,StimList,4,M_3_4_con_Low_Loud.wav,3,31,1,7,31
KoreanPoliteness_F0INT_KOR,1,2,22,"<?xml version=""1.0""?>\n<Clock xmlns:dt=""urn:schemas-microsoft-com:datatypes""><Description dt:dt=""string"">E-Prime Primary Realtime Clock</Description><StartTime><Timestamp dt:dt=""int"">0</Timestamp><DateUtc dt:dt=""string"">2016-12-06T02:02:57Z</DateUtc></StartTime><FrequencyChanges><FrequencyChange><Frequency dt:dt=""r8"">2539101</Frequency><Timestamp dt:dt=""r8"">8252178452</Timestamp><Current dt:dt=""r8"">0</Current><DateUtc dt:dt=""string"">2016-12-06T02:02:57Z</DateUtc></FrequencyChange></FrequencyChanges></Clock>\n",KoreanPoliteness_F0INT_KOR-001-1,60.145,1.0.0.0,1,-337277273,Professional,2.0.10.353,2.0.10.353,12/06/2016,2016-12-06 __ 2:02:58,11:02:58,,female,2.0.10.248,2,2,1,2,Test,List1,1,,,,,,BlockProc,,,,,,,,,,SpeakerBlocks,,,,3,1,1,M,3,8,8,Mid,2,Neut,2,TrialProc,1,8,-999999,26,354207,0,8,357,354564,StimList,1,M_3_1_con_Mid_Neut.wav,3,8,1,8,8
KoreanPoliteness_F0INT_KOR,1,2,22,"<?xml version=""1.0""?>\n<Clock xmlns:dt=""urn:schemas-microsoft-com:datatypes""><Description dt:dt=""string"">E-Prime Primary Realtime Clock</Description><StartTime><Timestamp dt:dt=""int"">0</Timestamp><DateUtc dt:dt=""string"">2016-12-06T02:02:57Z</DateUtc></StartTime><FrequencyChanges><FrequencyChange><Frequency dt:dt=""r8"">2539101</Frequency><Timestamp dt:dt=""r8"">8252178452</Timestamp><Current dt:dt=""r8"">0</Current><DateUtc dt:dt=""string"">2016-12-06T02:02:57Z</DateUtc></FrequencyChange></FrequencyChanges></Clock>\n",KoreanPoliteness_F0INT_KOR-001-1,60.145,1.0.0.0,1,-337277273,Professional,2.0.10.353,2.0.10.353,12/06/2016,2016-12-06 __ 2:02:58,11:02:58,,female,2.0.10.248,2,2,1,2,Test,List1,1,,,,,,BlockProc,,,,,,,,,,SpeakerBlocks,,,,3,1,1,M,3,9,8,Low,1,Loud,3,TrialProc,0,8,-999999,25,357865,0,2,129,357994,StimList,6,M_3_6_con_Low_Loud.wav,3,49,1,9,49
KoreanPoliteness_F0INT_KOR,1,2,22,"<?xml version=""1.0""?>\n<Clock xmlns:dt=""urn:schemas-microsoft-com:datatypes""><Description dt:dt=""string"">E-Prime Primary Realtime Clock</Description><StartTime><Timestamp dt:dt=""int"">0</Timestamp><DateUtc dt:dt=""string"">2016-12-06T02:02:57Z</DateUtc></StartTime><FrequencyChanges><FrequencyChange><Frequency dt:dt=""r8"">2539101</Frequency><Timestamp dt:dt=""r8"">8252178452</Timestamp><Current dt:dt=""r8"">0</Current><DateUtc dt:dt=""string"">2016-12-06T02:02:57Z</DateUtc></FrequencyChange></FrequencyChanges></Clock>\n",KoreanPoliteness_F0INT_KOR-001-1,60.145,1.0.0.0,1,-337277273,Professional,2.0.10.353,2.0.10.353,12/06/2016,2016-12-06 __ 2:02:58,11:02:58,,female,2.0.10.248,2,2,1,2,Test,List1,1,,,,,,BlockProc,,,,,,,,,,SpeakerBlocks,,,,3,1,1,M,3,10,8,High,3,Quie,1,TrialProc,1,8,-999999,27,361639,0,8,221,361860,StimList,5,M_3_5_con_High_Quie.wav,3,39,1,10,39
KoreanPoliteness_F0INT_KOR,1,2,22,"<?xml version=""1.0""?>\n<Clock xmlns:dt=""urn:schemas-microsoft-com:datatypes""><Description dt:dt=""string"">E-Prime Primary Realtime Clock</Description><StartTime><Timestamp dt:dt=""int"">0</Timestamp><DateUtc dt:dt=""string"">2016-12-06T02:02:57Z</DateUtc></StartTime><FrequencyChanges><FrequencyChange><Frequency dt:dt=""r8"">2539101</Frequency><Timestamp dt:dt=""r8"">8252178452</Timestamp><Current dt:dt=""r8"">0</Current><DateUtc dt:dt=""string"">2016-12-06T02:02:57Z</DateUtc></FrequencyChange></FrequencyChanges></Clock>\n",KoreanPoliteness_F0INT_KOR-001-1,60.145,1.0.0.0,1,-337277273,Professional,2.0.10.353,2.0.10.353,12/06/2016,2016-12-06 __ 2:02:58,11:02:58,,female,2.0.10.248,2,2,1,2,Test,List1,1,,,,,,BlockProc,,,,,,,,,,SpeakerBlocks,,,,3,1,1,M,3,11,8,Mid,2,Quie,1,TrialProc,1,8,-999999,26,365197,0,8,155,365352,StimList,6,M_3_6_con_Mid_Quie.wav,3,54,1,11,54
KoreanPoliteness_F0INT_KOR,1,2,22,"<?xml version=""1.0""?>\n<Clock xmlns:dt=""urn:schemas-microsoft-com:datatypes""><Description dt:dt=""string"">E-Prime Primary Realtime Clock</Description><StartTime><Timestamp dt:dt=""int"">0</Timestamp><DateUtc dt:dt=""string"">2016-12-06T02:02:57Z</DateUtc></StartTime><FrequencyChanges><FrequencyChange><Frequency dt:dt=""r8"">2539101</Frequency><Timestamp dt:dt=""r8"">8252178452</Timestamp><Current dt:dt=""r8"">0</Current><DateUtc dt:dt=""string"">2016-12-06T02:02:57Z</DateUtc></FrequencyChange></FrequencyChanges></Clock>\n",KoreanPoliteness_F0INT_KOR-001-1,60.145,1.0.0.0,1,-337277273,Professional,2.0.10.353,2.0.10.353,12/06/2016,2016-12-06 __ 2:02:58,11:02:58,,female,2.0.10.248,2,2,1,2,Test,List1,1,,,,,,BlockProc,,,,,,,,,,SpeakerBlocks,,,,3,1,1,M,3,12,8,Low,1,Loud,3,TrialProc,0,8,-999999,18,368290,0,2,1112,369402,StimList,8,M_3_8_con_Low_Loud.wav,3,67,1,12,67
KoreanPoliteness_F0INT_KOR,1,2,22,"<?xml version=""1.0""?>\n<Clock xmlns:dt=""urn:schemas-microsoft-com:datatypes""><Description dt:dt=""string"">E-Prime Primary Realtime Clock</Description><StartTime><Timestamp dt:dt=""int"">0</Timestamp><DateUtc dt:dt=""string"">2016-12-06T02:02:57Z</DateUtc></StartTime><FrequencyChanges><FrequencyChange><Frequency dt:dt=""r8"">2539101</Frequency><Timestamp dt:dt=""r8"">8252178452</Timestamp><Current dt:dt=""r8"">0</Current><DateUtc dt:dt=""string"">2016-12-06T02:02:57Z</DateUtc></FrequencyChange></FrequencyChanges></Clock>\n",KoreanPoliteness_F0INT_KOR-001-1,60.145,1.0.0.0,1,-337277273,Professional,2.0.10.353,2.0.10.353,12/06/2016,2016-12-06 __ 2:02:58,11:02:58,,female,2.0.10.248,2,2,1,2,Test,List1,1,,,,,,BlockProc,,,,,,,,,,SpeakerBlocks,,,,3,1,1,M,3,13,8,Mid,2,Neut,2,TrialProc,1,8,-999999,16,373827,0,8,349,374176,StimList,3,M_3_3_con_Mid_Neut.wav,3,26,1,13,26
KoreanPoliteness_F0INT_KOR,1,2,22,"<?xml version=""1.0""?>\n<Clock xmlns:dt=""urn:schemas-microsoft-com:datatypes""><Description dt:dt=""string"">E-Prime Primary Realtime Clock</Description><StartTime><Timestamp dt:dt=""int"">0</Timestamp><DateUtc dt:dt=""string"">2016-12-06T02:02:57Z</DateUtc></StartTime><FrequencyChanges><FrequencyChange><Frequency dt:dt=""r8"">2539101</Frequency><Timestamp dt:dt=""r8"">8252178452</Timestamp><Current dt:dt=""r8"">0</Current><DateUtc dt:dt=""string"">2016-12-06T02:02:57Z</DateUtc></FrequencyChange></FrequencyChanges></Clock>\n",KoreanPoliteness_F0INT_KOR-001-1,60.145,1.0.0.0,1,-337277273,Professional,2.0.10.353,2.0.10.353,12/06/2016,2016-12-06 __ 2:02:58,11:02:58,,female,2.0.10.248,2,2,1,2,Test,List1,1,,,,,,BlockProc,,,,,,,,,,SpeakerBlocks,,,,3,1,1,M,3,14,8,Low,1,Quie,1,TrialProc,1,8,-999999,18,377468,0,8,378,377846,StimList,6,M_3_6_con_Low_Quie.wav,3,51,1,14,51
KoreanPoliteness_F0INT_KOR,1,2,22,"<?xml version=""1.0""?>\n<Clock xmlns:dt=""urn:schemas-microsoft-com:datatypes""><Description dt:dt=""string"">E-Prime Primary Realtime Clock</Description><StartTime><Timestamp dt:dt=""int"">0</Timestamp><DateUtc dt:dt=""string"">2016-12-06T02:02:57Z</DateUtc></StartTime><FrequencyChanges><FrequencyChange><Frequency dt:dt=""r8"">2539101</Frequency><Timestamp dt:dt=""r8"">8252178452</Timestamp><Current dt:dt=""r8"">0</Current><DateUtc dt:dt=""string"">2016-12-06T02:02:57Z</DateUtc></FrequencyChange></FrequencyChanges></Clock>\n",KoreanPoliteness_F0INT_KOR-001-1,60.145,1.0.0.0,1,-337277273,Professional,2.0.10.353,2.0.10.353,12/06/2016,2016-12-06 __ 2:02:58,11:02:58,,female,2.0.10.248,2,2,1,2,Test,List1,1,,,,,,BlockProc,,,,,,,,,,SpeakerBlocks,,,,3,1,1,M,3,15,8,High,3,Quie,1,TrialProc,1,8,-999999,26,380976,0,8,591,381567,StimList,7,M_3_7_con_High_Quie.wav,3,57,1,15,57
KoreanPoliteness_F0INT_KOR,1,2,22,"<?xml version=""1.0""?>\n<Clock xmlns:dt=""urn:schemas-microsoft-com:datatypes""><Description dt:dt=""string"">E-Prime Primary Realtime Clock</Description><StartTime><Timestamp dt:dt=""int"">0</Timestamp><DateUtc dt:dt=""string"">2016-12-06T02:02:57Z</DateUtc></StartTime><FrequencyChanges><FrequencyChange><Frequency dt:dt=""r8"">2539101</Frequency><Timestamp dt:dt=""r8"">8252178452</Timestamp><Current dt:dt=""r8"">0</Current><DateUtc dt:dt=""string"">2016-12-06T02:02:57Z</DateUtc></FrequencyChange></FrequencyChanges></Clock>\n",KoreanPoliteness_F0INT_KOR-001-1,60.145,1.0.0.0,1,-337277273,Professional,2.0.10.353,2.0.10.353,12/06/2016,2016-12-06 __ 2:02:58,11:02:58,,female,2.0.10.248,2,2,1,2,Test,List1,1,,,,,,BlockProc,,,,,,,,,,SpeakerBlocks,,,,3,1,1,M,3,16,8,Low,1,Quie,1,TrialProc,1,8,-999999,26,386047,0,8,940,386987,StimList,3,M_3_3_con_Low_Quie.wav,3,24,1,16,24
KoreanPoliteness_F0INT_KOR,1,2,22,"<?xml version=""1.0""?>\n<Clock xmlns:dt=""urn:schemas-microsoft-com:datatypes""><Description dt:dt=""string"">E-Prime Primary Realtime Clock</Description><StartTime><Timestamp dt:dt=""int"">0</Timestamp><DateUtc dt:dt=""string"">2016-12-06T02:02:57Z</DateUtc></StartTime><FrequencyChanges><FrequencyChange><Frequency dt:dt=""r8"">2539101</Frequency><Timestamp dt:dt=""r8"">8252178452</Timestamp><Current dt:dt=""r8"">0</Current><DateUtc dt:dt=""string"">2016-12-06T02:02:57Z</DateUtc></FrequencyChange></FrequencyChanges></Clock>\n",KoreanPoliteness_F0INT_KOR-001-1,60.145,1.0.0.0,1,-337277273,Professional,2.0.10.353,2.0.10.353,12/06/2016,2016-12-06 __ 2:02:58,11:02:58,,female,2.0.10.248,2,2,1,2,Test,List1,1,,,,,,BlockProc,,,,,,,,,,SpeakerBlocks,,,,3,1,1,M,3,17,8,Mid,2,Loud,3,TrialProc,1,8,-999999,29,390071,0,8,245,390316,StimList,2,M_3_2_con_Mid_Loud.wav,3,16,1,17,16
KoreanPoliteness_F0INT_KOR,1,2,22,"<?xml version=""1.0""?>\n<Clock xmlns:dt=""urn:schemas-microsoft-com:datatypes""><Description dt:dt=""string"">E-Prime Primary Realtime Clock</Description><StartTime><Timestamp dt:dt=""int"">0</Timestamp><DateUtc dt:dt=""string"">2016-12-06T02:02:57Z</DateUtc></StartTime><FrequencyChanges><FrequencyChange><Frequency dt:dt=""r8"">2539101</Frequency><Timestamp dt:dt=""r8"">8252178452</Timestamp><Current dt:dt=""r8"">0</Current><DateUtc dt:dt=""string"">2016-12-06T02:02:57Z</DateUtc></FrequencyChange></FrequencyChanges></Clock>\n",KoreanPoliteness_F0INT_KOR-001-1,60.145,1.0.0.0,1,-337277273,Professional,2.0.10.353,2.0.10.353,12/06/2016,2016-12-06 __ 2:02:58,11:02:58,,female,2.0.10.248,2,2,1,2,Test,List1,1,,,,,,BlockProc,,,,,,,,,,SpeakerBlocks,,,,3,1,1,M,3,18,8,High,3,Loud,3,TrialProc,1,8,-999999,18,393429,0,8,614,394043,StimList,2,M_3_2_con_High_Loud.wav,3,10,1,18,10
KoreanPoliteness_F0INT_KOR,1,2,22,"<?xml version=""1.0""?>\n<Clock xmlns:dt=""urn:schemas-microsoft-com:datatypes""><Description dt:dt=""string"">E-Prime Primary Realtime Clock</Description><StartTime><Timestamp dt:dt=""int"">0</Timestamp><DateUtc dt:dt=""string"">2016-12-06T02:02:57Z</DateUtc></StartTime><FrequencyChanges><FrequencyChange><Frequency dt:dt=""r8"">2539101</Frequency><Timestamp dt:dt=""r8"">8252178452</Timestamp><Current dt:dt=""r8"">0</Current><DateUtc dt:dt=""string"">2016-12-06T02:02:57Z</DateUtc></FrequencyChange></FrequencyChanges></Clock>\n",KoreanPoliteness_F0INT_KOR-001-1,60.145,1.0.0.0,1,-337277273,Professional,2.0.10.353,2.0.10.353,12/06/2016,2016-12-06 __ 2:02:58,11:02:58,,female,2.0.10.248,2,2,1,2,Test,List1,1,,,,,,BlockProc,,,,,,,,,,SpeakerBlocks,,,,3,1,1,M,3,19,8,Low,1,Loud,3,TrialProc,1,8,-999999,25,397636,0,8,1170,398806,StimList,5,M_3_5_con_Low_Loud.wav,3,40,1,19,40
KoreanPoliteness_F0INT_KOR,1,2,22,"<?xml version=""1.0""?>\n<Clock xmlns:dt=""urn:schemas-microsoft-com:datatypes""><Description dt:dt=""string"">E-Prime Primary Realtime Clock</Description><StartTime><Timestamp dt:dt=""int"">0</Timestamp><DateUtc dt:dt=""string"">2016-12-06T02:02:57Z</DateUtc></StartTime><FrequencyChanges><FrequencyChange><Frequency dt:dt=""r8"">2539101</Frequency><Timestamp dt:dt=""r8"">8252178452</Timestamp><Current dt:dt=""r8"">0</Current><DateUtc dt:dt=""string"">2016-12-06T02:02:57Z</DateUtc></FrequencyChange></FrequencyChanges></Clock>\n",KoreanPoliteness_F0INT_KOR-001-1,60.145,1.0.0.0,1,-337277273,Professional,2.0.10.353,2.0.10.353,12/06/2016,2016-12-06 __ 2:02:58,11:02:58,,female,2.0.10.248,2,2,1,2,Test,List1,1,,,,,,BlockProc,,,,,,,,,,SpeakerBlocks,,,,3,1,1,M,3,20,8,High,3,Neut,2,TrialProc,1,8,-999999,19,403289,0,8,344,403633,StimList,3,M_3_3_con_High_Neut.wav,3,20,1,20,20
KoreanPoliteness_F0INT_KOR,1,2,22,"<?xml version=""1.0""?>\n<Clock xmlns:dt=""urn:schemas-microsoft-com:datatypes""><Description dt:dt=""string"">E-Prime Primary Realtime Clock</Description><StartTime><Timestamp dt:dt=""int"">0</Timestamp><DateUtc dt:dt=""string"">2016-12-06T02:02:57Z</DateUtc></StartTime><FrequencyChanges><FrequencyChange><Frequency dt:dt=""r8"">2539101</Frequency><Timestamp dt:dt=""r8"">8252178452</Timestamp><Current dt:dt=""r8"">0</Current><DateUtc dt:dt=""string"">2016-12-06T02:02:57Z</DateUtc></FrequencyChange></FrequencyChanges></Clock>\n",KoreanPoliteness_F0INT_KOR-001-1,60.145,1.0.0.0,1,-337277273,Professional,2.0.10.353,2.0.10.353,12/06/2016,2016-12-06 __ 2:02:58,11:02:58,,female,2.0.10.248,2,2,1,2,Test,List1,1,,,,,,BlockProc,,,,,,,,,,SpeakerBlocks,,,,3,1,1,M,3,21,8,Mid,2,Loud,3,TrialProc,1,8,-999999,26,407578,0,8,483,408061,StimList,5,M_3_5_con_Mid_Loud.wav,3,43,1,21,43
KoreanPoliteness_F0INT_KOR,1,2,22,"<?xml version=""1.0""?>\n<Clock xmlns:dt=""urn:schemas-microsoft-com:datatypes""><Description dt:dt=""string"">E-Prime Primary Realtime Clock</Description><StartTime><Timestamp dt:dt=""int"">0</Timestamp><DateUtc dt:dt=""string"">2016-12-06T02:02:57Z</DateUtc></StartTime><FrequencyChanges><FrequencyChange><Frequency dt:dt=""r8"">2539101</Frequency><Timestamp dt:dt=""r8"">8252178452</Timestamp><Current dt:dt=""r8"">0</Current><DateUtc dt:dt=""string"">2016-12-06T02:02:57Z</DateUtc></FrequencyChange></FrequencyChanges></Clock>\n",KoreanPoliteness_F0INT_KOR-001-1,60.145,1.0.0.0,1,-337277273,Professional,2.0.10.353,2.0.10.353,12/06/2016,2016-12-06 __ 2:02:58,11:02:58,,female,2.0.10.248,2,2,1,2,Test,List1,1,,,,,,BlockProc,,,,,,,,,,SpeakerBlocks,,,,3,1,1,M,3,22,8,High,3,Loud,3,TrialProc,0,8,-999999,26,412666,0,2,658,413324,StimList,3,M_3_3_con_High_Loud.wav,3,19,1,22,19
KoreanPoliteness_F0INT_KOR,1,2,22,"<?xml version=""1.0""?>\n<Clock xmlns:dt=""urn:schemas-microsoft-com:datatypes""><Description dt:dt=""string"">E-Prime Primary Realtime Clock</Description><StartTime><Timestamp dt:dt=""int"">0</Timestamp><DateUtc dt:dt=""string"">2016-12-06T02:02:57Z</DateUtc></StartTime><FrequencyChanges><FrequencyChange><Frequency dt:dt=""r8"">2539101</Frequency><Timestamp dt:dt=""r8"">8252178452</Timestamp><Current dt:dt=""r8"">0</Current><DateUtc dt:dt=""string"">2016-12-06T02:02:57Z</DateUtc></FrequencyChange></FrequencyChanges></Clock>\n",KoreanPoliteness_F0INT_KOR-001-1,60.145,1.0.0.0,1,-337277273,Professional,2.0.10.353,2.0.10.353,12/06/2016,2016-12-06 __ 2:02:58,11:02:58,,female,2.0.10.248,2,2,1,2,Test,List1,1,,,,,,BlockProc,,,,,,,,,,SpeakerBlocks,,,,3,1,1,M,3,23,8,Low,1,Loud,3,TrialProc,0,8,-999999,21,416291,0,2,545,416836,StimList,1,M_3_1_con_Low_Loud.wav,3,4,1,23,4
KoreanPoliteness_F0INT_KOR,1,2,22,"<?xml version=""1.0""?>\n<Clock xmlns:dt=""urn:schemas-microsoft-com:datatypes""><Description dt:dt=""string"">E-Prime Primary Realtime Clock</Description><StartTime><Timestamp dt:dt=""int"">0</Timestamp><DateUtc dt:dt=""string"">2016-12-06T02:02:57Z</DateUtc></StartTime><FrequencyChanges><FrequencyChange><Frequency dt:dt=""r8"">2539101</Frequency><Timestamp dt:dt=""r8"">8252178452</Timestamp><Current dt:dt=""r8"">0</Current><DateUtc dt:dt=""string"">2016-12-06T02:02:57Z</DateUtc></FrequencyChange></FrequencyChanges></Clock>\n",KoreanPoliteness_F0INT_KOR-001-1,60.145,1.0.0.0,1,-337277273,Professional,2.0.10.353,2.0.10.353,12/06/2016,2016-12-06 __ 2:02:58,11:02:58,,female,2.0.10.248,2,2,1,2,Test,List1,1,,,,,,BlockProc,,,,,,,,,,SpeakerBlocks,,,,3,1,1,M,3,24,8,High,3,Loud,3,TrialProc,1,8,-999999,21,419832,0,8,1861,421693,StimList,8,M_3_8_con_High_Loud.wav,3,64,1,24,64
KoreanPoliteness_F0INT_KOR,1,2,22,"<?xml version=""1.0""?>\n<Clock xmlns:dt=""urn:schemas-microsoft-com:datatypes""><Description dt:dt=""string"">E-Prime Primary Realtime Clock</Description><StartTime><Timestamp dt:dt=""int"">0</Timestamp><DateUtc dt:dt=""string"">2016-12-06T02:02:57Z</DateUtc></StartTime><FrequencyChanges><FrequencyChange><Frequency dt:dt=""r8"">2539101</Frequency><Timestamp dt:dt=""r8"">8252178452</Timestamp><Current dt:dt=""r8"">0</Current><DateUtc dt:dt=""string"">2016-12-06T02:02:57Z</DateUtc></FrequencyChange></FrequencyChanges></Clock>\n",KoreanPoliteness_F0INT_KOR-001-1,60.145,1.0.0.0,1,-337277273,Professional,2.0.10.353,2.0.10.353,12/06/2016,2016-12-06 __ 2:02:58,11:02:58,,female,2.0.10.248,2,2,1,2,Test,List1,1,,,,,,BlockProc,,,,,,,,,,SpeakerBlocks,,,,3,1,1,M,3,25,8,High,3,Neut,2,TrialProc,0,8,-999999,14,425004,0,2,922,425926,StimList,6,M_3_6_con_High_Neut.wav,3,47,1,25,47
KoreanPoliteness_F0INT_KOR,1,2,22,"<?xml version=""1.0""?>\n<Clock xmlns:dt=""urn:schemas-microsoft-com:datatypes""><Description dt:dt=""string"">E-Prime Primary Realtime Clock</Description><StartTime><Timestamp dt:dt=""int"">0</Timestamp><DateUtc dt:dt=""string"">2016-12-06T02:02:57Z</DateUtc></StartTime><FrequencyChanges><FrequencyChange><Frequency dt:dt=""r8"">2539101</Frequency><Timestamp dt:dt=""r8"">8252178452</Timestamp><Current dt:dt=""r8"">0</Current><DateUtc dt:dt=""string"">2016-12-06T02:02:57Z</DateUtc></FrequencyChange></FrequencyChanges></Clock>\n",KoreanPoliteness_F0INT_KOR-001-1,60.145,1.0.0.0,1,-337277273,Professional,2.0.10.353,2.0.10.353,12/06/2016,2016-12-06 __ 2:02:58,11:02:58,,female,2.0.10.248,2,2,1,2,Test,List1,1,,,,,,BlockProc,,,,,,,,,,SpeakerBlocks,,,,3,1,1,M,3,26,8,Low,1,Loud,3,TrialProc,0,8,-999999,14,429093,0,2,730,429823,StimList,7,M_3_7_con_Low_Loud.wav,3,58,1,26,58
KoreanPoliteness_F0INT_KOR,1,2,22,"<?xml version=""1.0""?>\n<Clock xmlns:dt=""urn:schemas-microsoft-com:datatypes""><Description dt:dt=""string"">E-Prime Primary Realtime Clock</Description><StartTime><Timestamp dt:dt=""int"">0</Timestamp><DateUtc dt:dt=""string"">2016-12-06T02:02:57Z</DateUtc></StartTime><FrequencyChanges><FrequencyChange><Frequency dt:dt=""r8"">2539101</Frequency><Timestamp dt:dt=""r8"">8252178452</Timestamp><Current dt:dt=""r8"">0</Current><DateUtc dt:dt=""string"">2016-12-06T02:02:57Z</DateUtc></FrequencyChange></FrequencyChanges></Clock>\n",KoreanPoliteness_F0INT_KOR-001-1,60.145,1.0.0.0,1,-337277273,Professional,2.0.10.353,2.0.10.353,12/06/2016,2016-12-06 __ 2:02:58,11:02:58,,female,2.0.10.248,2,2,1,2,Test,List1,1,,,,,,BlockProc,,,,,,,,,,SpeakerBlocks,,,,3,1,1,M,3,27,8,Mid,2,Loud,3,TrialProc,1,8,-999999,24,432884,0,8,608,433492,StimList,4,M_3_4_con_Mid_Loud.wav,3,34,1,27,34
KoreanPoliteness_F0INT_KOR,1,2,22,"<?xml version=""1.0""?>\n<Clock xmlns:dt=""urn:schemas-microsoft-com:datatypes""><Description dt:dt=""string"">E-Prime Primary Realtime Clock</Description><StartTime><Timestamp dt:dt=""int"">0</Timestamp><DateUtc dt:dt=""string"">2016-12-06T02:02:57Z</DateUtc></StartTime><FrequencyChanges><FrequencyChange><Frequency dt:dt=""r8"">2539101</Frequency><Timestamp dt:dt=""r8"">8252178452</Timestamp><Current dt:dt=""r8"">0</Current><DateUtc dt:dt=""string"">2016-12-06T02:02:57Z</DateUtc></FrequencyChange></FrequencyChanges></Clock>\n",KoreanPoliteness_F0INT_KOR-001-1,60.145,1.0.0.0,1,-337277273,Professional,2.0.10.353,2.0.10.353,12/06/2016,2016-12-06 __ 2:02:58,11:02:58,,female,2.0.10.248,2,2,1,2,Test,List1,1,,,,,,BlockProc,,,,,,,,,,SpeakerBlocks,,,,3,1,1,M,3,28,8,Low,1,Neut,2,TrialProc,0,8,-999999,28,437157,0,2,941,438098,StimList,2,M_3_2_con_Low_Neut.wav,3,14,1,28,14
KoreanPoliteness_F0INT_KOR,1,2,22,"<?xml version=""1.0""?>\n<Clock xmlns:dt=""urn:schemas-microsoft-com:datatypes""><Description dt:dt=""string"">E-Prime Primary Realtime Clock</Description><StartTime><Timestamp dt:dt=""int"">0</Timestamp><DateUtc dt:dt=""string"">2016-12-06T02:02:57Z</DateUtc></StartTime><FrequencyChanges><FrequencyChange><Frequency dt:dt=""r8"">2539101</Frequency><Timestamp dt:dt=""r8"">8252178452</Timestamp><Current dt:dt=""r8"">0</Current><DateUtc dt:dt=""string"">2016-12-06T02:02:57Z</DateUtc></FrequencyChange></FrequencyChanges></Clock>\n",KoreanPoliteness_F0INT_KOR-001-1,60.145,1.0.0.0,1,-337277273,Professional,2.0.10.353,2.0.10.353,12/06/2016,2016-12-06 __ 2:02:58,11:02:58,,female,2.0.10.248,2,2,1,2,Test,List1,1,,,,,,BlockProc,,,,,,,,,,SpeakerBlocks,,,,3,1,1,M,3,29,8,High,3,Neut,2,TrialProc,1,8,-999999,21,441231,0,8,246,441477,StimList,2,M_3_2_con_High_Neut.wav,3,11,1,29,11
KoreanPoliteness_F0INT_KOR,1,2,22,"<?xml version=""1.0""?>\n<Clock xmlns:dt=""urn:schemas-microsoft-com:datatypes""><Description dt:dt=""string"">E-Prime Primary Realtime Clock</Description><StartTime><Timestamp dt:dt=""int"">0</Timestamp><DateUtc dt:dt=""string"">2016-12-06T02:02:57Z</DateUtc></StartTime><FrequencyChanges><FrequencyChange><Frequency dt:dt=""r8"">2539101</Frequency><Timestamp dt:dt=""r8"">8252178452</Timestamp><Current dt:dt=""r8"">0</Current><DateUtc dt:dt=""string"">2016-12-06T02:02:57Z</DateUtc></FrequencyChange></FrequencyChanges></Clock>\n",KoreanPoliteness_F0INT_KOR-001-1,60.145,1.0.0.0,1,-337277273,Professional,2.0.10.353,2.0.10.353,12/06/2016,2016-12-06 __ 2:02:58,11:02:58,,female,2.0.10.248,2,2,1,2,Test,List1,1,,,,,,BlockProc,,,,,,,,,,SpeakerBlocks,,,,3,1,1,M,3,30,8,High,3,Quie,1,TrialProc,1,8,-999999,20,444489,0,8,1265,445754,StimList,8,M_3_8_con_High_Quie.wav,3,66,1,30,66
KoreanPoliteness_F0INT_KOR,1,2,22,"<?xml version=""1.0""?>\n<Clock xmlns:dt=""urn:schemas-microsoft-com:datatypes""><Description dt:dt=""string"">E-Prime Primary Realtime Clock</Description><StartTime><Timestamp dt:dt=""int"">0</Timestamp><DateUtc dt:dt=""string"">2016-12-06T02:02:57Z</DateUtc></StartTime><FrequencyChanges><FrequencyChange><Frequency dt:dt=""r8"">2539101</Frequency><Timestamp dt:dt=""r8"">8252178452</Timestamp><Current dt:dt=""r8"">0</Current><DateUtc dt:dt=""string"">2016-12-06T02:02:57Z</DateUtc></FrequencyChange></FrequencyChanges></Clock>\n",KoreanPoliteness_F0INT_KOR-001-1,60.145,1.0.0.0,1,-337277273,Professional,2.0.10.353,2.0.10.353,12/06/2016,2016-12-06 __ 2:02:58,11:02:58,,female,2.0.10.248,2,2,1,2,Test,List1,1,,,,,,BlockProc,,,,,,,,,,SpeakerBlocks,,,,3,1,1,M,3,31,8,Low,1,Quie,1,TrialProc,0,8,-999999,29,448879,0,2,1518,450397,StimList,4,M_3_4_con_Low_Quie.wav,3,33,1,31,33
KoreanPoliteness_F0INT_KOR,1,2,22,"<?xml version=""1.0""?>\n<Clock xmlns:dt=""urn:schemas-microsoft-com:datatypes""><Description dt:dt=""string"">E-Prime Primary Realtime Clock</Description><StartTime><Timestamp dt:dt=""int"">0</Timestamp><DateUtc dt:dt=""string"">2016-12-06T02:02:57Z</DateUtc></StartTime><FrequencyChanges><FrequencyChange><Frequency dt:dt=""r8"">2539101</Frequency><Timestamp dt:dt=""r8"">8252178452</Timestamp><Current dt:dt=""r8"">0</Current><DateUtc dt:dt=""string"">2016-12-06T02:02:57Z</DateUtc></FrequencyChange></FrequencyChanges></Clock>\n",KoreanPoliteness_F0INT_KOR-001-1,60.145,1.0.0.0,1,-337277273,Professional,2.0.10.353,2.0.10.353,12/06/2016,2016-12-06 __ 2:02:58,11:02:58,,female,2.0.10.248,2,2,1,2,Test,List1,1,,,,,,BlockProc,,,,,,,,,,SpeakerBlocks,,,,3,1,1,M,3,32,8,Low,1,Neut,2,TrialProc,1,8,-999999,28,454548,0,8,1055,455603,StimList,1,M_3_1_con_Low_Neut.wav,3,5,1,32,5
KoreanPoliteness_F0INT_KOR,1,2,22,"<?xml version=""1.0""?>\n<Clock xmlns:dt=""urn:schemas-microsoft-com:datatypes""><Description dt:dt=""string"">E-Prime Primary Realtime Clock</Description><StartTime><Timestamp dt:dt=""int"">0</Timestamp><DateUtc dt:dt=""string"">2016-12-06T02:02:57Z</DateUtc></StartTime><FrequencyChanges><FrequencyChange><Frequency dt:dt=""r8"">2539101</Frequency><Timestamp dt:dt=""r8"">8252178452</Timestamp><Current dt:dt=""r8"">0</Current><DateUtc dt:dt=""string"">2016-12-06T02:02:57Z</DateUtc></FrequencyChange></FrequencyChanges></Clock>\n",KoreanPoliteness_F0INT_KOR-001-1,60.145,1.0.0.0,1,-337277273,Professional,2.0.10.353,2.0.10.353,12/06/2016,2016-12-06 __ 2:02:58,11:02:58,,female,2.0.10.248,2,2,1,2,Test,List1,1,,,,,,BlockProc,,,,,,,,,,SpeakerBlocks,,,,3,1,1,M,3,33,8,Mid,2,Loud,3,TrialProc,1,8,-999999,26,458555,0,8,977,459532,StimList,1,M_3_1_con_Mid_Loud.wav,3,7,1,33,7
KoreanPoliteness_F0INT_KOR,1,2,22,"<?xml version=""1.0""?>\n<Clock xmlns:dt=""urn:schemas-microsoft-com:datatypes""><Description dt:dt=""string"">E-Prime Primary Realtime Clock</Description><StartTime><Timestamp dt:dt=""int"">0</Timestamp><DateUtc dt:dt=""string"">2016-12-06T02:02:57Z</DateUtc></StartTime><FrequencyChanges><FrequencyChange><Frequency dt:dt=""r8"">2539101</Frequency><Timestamp dt:dt=""r8"">8252178452</Timestamp><Current dt:dt=""r8"">0</Current><DateUtc dt:dt=""string"">2016-12-06T02:02:57Z</DateUtc></FrequencyChange></FrequencyChanges></Clock>\n",KoreanPoliteness_F0INT_KOR-001-1,60.145,1.0.0.0,1,-337277273,Professional,2.0.10.353,2.0.10.353,12/06/2016,2016-12-06 __ 2:02:58,11:02:58,,female,2.0.10.248,2,2,1,2,Test,List1,1,,,,,,BlockProc,,,,,,,,,,SpeakerBlocks,,,,3,1,1,M,3,34,8,High,3,Neut,2,TrialProc,1,8,-999999,15,463128,0,8,258,463386,StimList,5,M_3_5_con_High_Neut.wav,3,38,1,34,38
KoreanPoliteness_F0INT_KOR,1,2,22,"<?xml version=""1.0""?>\n<Clock xmlns:dt=""urn:schemas-microsoft-com:datatypes""><Description dt:dt=""string"">E-Prime Primary Realtime Clock</Description><StartTime><Timestamp dt:dt=""int"">0</Timestamp><DateUtc dt:dt=""string"">2016-12-06T02:02:57Z</DateUtc></StartTime><FrequencyChanges><FrequencyChange><Frequency dt:dt=""r8"">2539101</Frequency><Timestamp dt:dt=""r8"">8252178452</Timestamp><Current dt:dt=""r8"">0</Current><DateUtc dt:dt=""string"">2016-12-06T02:02:57Z</DateUtc></FrequencyChange></FrequencyChanges></Clock>\n",KoreanPoliteness_F0INT_KOR-001-1,60.145,1.0.0.0,1,-337277273,Professional,2.0.10.353,2.0.10.353,12/06/2016,2016-12-06 __ 2:02:58,11:02:58,,female,2.0.10.248,2,2,1,2,Test,List1,1,,,,,,BlockProc,,,,,,,,,,SpeakerBlocks,,,,3,1,1,M,3,35,8,High,3,Loud,3,TrialProc,0,8,-999999,20,466669,0,2,1251,467920,StimList,7,M_3_7_con_High_Loud.wav,3,55,1,35,55
KoreanPoliteness_F0INT_KOR,1,2,22,"<?xml version=""1.0""?>\n<Clock xmlns:dt=""urn:schemas-microsoft-com:datatypes""><Description dt:dt=""string"">E-Prime Primary Realtime Clock</Description><StartTime><Timestamp dt:dt=""int"">0</Timestamp><DateUtc dt:dt=""string"">2016-12-06T02:02:57Z</DateUtc></StartTime><FrequencyChanges><FrequencyChange><Frequency dt:dt=""r8"">2539101</Frequency><Timestamp dt:dt=""r8"">8252178452</Timestamp><Current dt:dt=""r8"">0</Current><DateUtc dt:dt=""string"">2016-12-06T02:02:57Z</DateUtc></FrequencyChange></FrequencyChanges></Clock>\n",KoreanPoliteness_F0INT_KOR-001-1,60.145,1.0.0.0,1,-337277273,Professional,2.0.10.353,2.0.10.353,12/06/2016,2016-12-06 __ 2:02:58,11:02:58,,female,2.0.10.248,2,2,1,2,Test,List1,1,,,,,,BlockProc,,,,,,,,,,SpeakerBlocks,,,,3,1,1,M,3,36,8,Mid,2,Loud,3,TrialProc,1,8,-999999,16,472505,0,8,660,473165,StimList,3,M_3_3_con_Mid_Loud.wav,3,25,1,36,25
KoreanPoliteness_F0INT_KOR,1,2,22,"<?xml version=""1.0""?>\n<Clock xmlns:dt=""urn:schemas-microsoft-com:datatypes""><Description dt:dt=""string"">E-Prime Primary Realtime Clock</Description><StartTime><Timestamp dt:dt=""int"">0</Timestamp><DateUtc dt:dt=""string"">2016-12-06T02:02:57Z</DateUtc></StartTime><FrequencyChanges><FrequencyChange><Frequency dt:dt=""r8"">2539101</Frequency><Timestamp dt:dt=""r8"">8252178452</Timestamp><Current dt:dt=""r8"">0</Current><DateUtc dt:dt=""string"">2016-12-06T02:02:57Z</DateUtc></FrequencyChange></FrequencyChanges></Clock>\n",KoreanPoliteness_F0INT_KOR-001-1,60.145,1.0.0.0,1,-337277273,Professional,2.0.10.353,2.0.10.353,12/06/2016,2016-12-06 __ 2:02:58,11:02:58,,female,2.0.10.248,2,2,1,2,Test,List1,1,,,,,,BlockProc,,,,,,,,,,SpeakerBlocks,,,,3,1,1,M,3,37,8,High,3,Neut,2,TrialProc,1,8,-999999,18,476047,0,8,924,476971,StimList,1,M_3_1_con_High_Neut.wav,3,2,1,37,2
KoreanPoliteness_F0INT_KOR,1,2,22,"<?xml version=""1.0""?>\n<Clock xmlns:dt=""urn:schemas-microsoft-com:datatypes""><Description dt:dt=""string"">E-Prime Primary Realtime Clock</Description><StartTime><Timestamp dt:dt=""int"">0</Timestamp><DateUtc dt:dt=""string"">2016-12-06T02:02:57Z</DateUtc></StartTime><FrequencyChanges><FrequencyChange><Frequency dt:dt=""r8"">2539101</Frequency><Timestamp dt:dt=""r8"">8252178452</Timestamp><Current dt:dt=""r8"">0</Current><DateUtc dt:dt=""string"">2016-12-06T02:02:57Z</DateUtc></FrequencyChange></FrequencyChanges></Clock>\n",KoreanPoliteness_F0INT_KOR-001-1,60.145,1.0.0.0,1,-337277273,Professional,2.0.10.353,2.0.10.353,12/06/2016,2016-12-06 __ 2:02:58,11:02:58,,female,2.0.10.248,2,2,1,2,Test,List1,1,,,,,,BlockProc,,,,,,,,,,SpeakerBlocks,,,,3,1,1,M,3,38,8,Mid,2,Neut,2,TrialProc,1,8,-999999,14,480103,0,8,727,480830,StimList,2,M_3_2_con_Mid_Neut.wav,3,17,1,38,17
KoreanPoliteness_F0INT_KOR,1,2,22,"<?xml version=""1.0""?>\n<Clock xmlns:dt=""urn:schemas-microsoft-com:datatypes""><Description dt:dt=""string"">E-Prime Primary Realtime Clock</Description><StartTime><Timestamp dt:dt=""int"">0</Timestamp><DateUtc dt:dt=""string"">2016-12-06T02:02:57Z</DateUtc></StartTime><FrequencyChanges><FrequencyChange><Frequency dt:dt=""r8"">2539101</Frequency><Timestamp dt:dt=""r8"">8252178452</Timestamp><Current dt:dt=""r8"">0</Current><DateUtc dt:dt=""string"">2016-12-06T02:02:57Z</DateUtc></FrequencyChange></FrequencyChanges></Clock>\n",KoreanPoliteness_F0INT_KOR-001-1,60.145,1.0.0.0,1,-337277273,Professional,2.0.10.353,2.0.10.353,12/06/2016,2016-12-06 __ 2:02:58,11:02:58,,female,2.0.10.248,2,2,1,2,Test,List1,1,,,,,,BlockProc,,,,,,,,,,SpeakerBlocks,,,,3,1,1,M,3,39,8,High,3,Quie,1,TrialProc,1,8,-999999,16,483894,0,8,1167,485061,StimList,2,M_3_2_con_High_Quie.wav,3,12,1,39,12
KoreanPoliteness_F0INT_KOR,1,2,22,"<?xml version=""1.0""?>\n<Clock xmlns:dt=""urn:schemas-microsoft-com:datatypes""><Description dt:dt=""string"">E-Prime Primary Realtime Clock</Description><StartTime><Timestamp dt:dt=""int"">0</Timestamp><DateUtc dt:dt=""string"">2016-12-06T02:02:57Z</DateUtc></StartTime><FrequencyChanges><FrequencyChange><Frequency dt:dt=""r8"">2539101</Frequency><Timestamp dt:dt=""r8"">8252178452</Timestamp><Current dt:dt=""r8"">0</Current><DateUtc dt:dt=""string"">2016-12-06T02:02:57Z</DateUtc></FrequencyChange></FrequencyChanges></Clock>\n",KoreanPoliteness_F0INT_KOR-001-1,60.145,1.0.0.0,1,-337277273,Professional,2.0.10.353,2.0.10.353,12/06/2016,2016-12-06 __ 2:02:58,11:02:58,,female,2.0.10.248,2,2,1,2,Test,List1,1,,,,,,BlockProc,,,,,,,,,,SpeakerBlocks,,,,3,1,1,M,3,40,8,Mid,2,Loud,3,TrialProc,1,8,-999999,18,488217,0,8,1456,489673,StimList,7,M_3_7_con_Mid_Loud.wav,3,61,1,40,61
KoreanPoliteness_F0INT_KOR,1,2,22,"<?xml version=""1.0""?>\n<Clock xmlns:dt=""urn:schemas-microsoft-com:datatypes""><Description dt:dt=""string"">E-Prime Primary Realtime Clock</Description><StartTime><Timestamp dt:dt=""int"">0</Timestamp><DateUtc dt:dt=""string"">2016-12-06T02:02:57Z</DateUtc></StartTime><FrequencyChanges><FrequencyChange><Frequency dt:dt=""r8"">2539101</Frequency><Timestamp dt:dt=""r8"">8252178452</Timestamp><Current dt:dt=""r8"">0</Current><DateUtc dt:dt=""string"">2016-12-06T02:02:57Z</DateUtc></FrequencyChange></FrequencyChanges></Clock>\n",KoreanPoliteness_F0INT_KOR-001-1,60.145,1.0.0.0,1,-337277273,Professional,2.0.10.353,2.0.10.353,12/06/2016,2016-12-06 __ 2:02:58,11:02:58,,female,2.0.10.248,2,2,1,2,Test,List1,1,,,,,,BlockProc,,,,,,,,,,SpeakerBlocks,,,,3,1,1,M,3,41,8,Mid,2,Neut,2,TrialProc,1,8,-999999,24,492972,0,8,1394,494366,StimList,6,M_3_6_con_Mid_Neut.wav,3,53,1,41,53
KoreanPoliteness_F0INT_KOR,1,2,22,"<?xml version=""1.0""?>\n<Clock xmlns:dt=""urn:schemas-microsoft-com:datatypes""><Description dt:dt=""string"">E-Prime Primary Realtime Clock</Description><StartTime><Timestamp dt:dt=""int"">0</Timestamp><DateUtc dt:dt=""string"">2016-12-06T02:02:57Z</DateUtc></StartTime><FrequencyChanges><FrequencyChange><Frequency dt:dt=""r8"">2539101</Frequency><Timestamp dt:dt=""r8"">8252178452</Timestamp><Current dt:dt=""r8"">0</Current><DateUtc dt:dt=""string"">2016-12-06T02:02:57Z</DateUtc></FrequencyChange></FrequencyChanges></Clock>\n",KoreanPoliteness_F0INT_KOR-001-1,60.145,1.0.0.0,1,-337277273,Professional,2.0.10.353,2.0.10.353,12/06/2016,2016-12-06 __ 2:02:58,11:02:58,,female,2.0.10.248,2,2,1,2,Test,List1,1,,,,,,BlockProc,,,,,,,,,,SpeakerBlocks,,,,3,1,1,M,3,42,8,Low,1,Quie,1,TrialProc,0,8,-999999,21,497329,0,2,261,497590,StimList,8,M_3_8_con_Low_Quie.wav,3,69,1,42,69
KoreanPoliteness_F0INT_KOR,1,2,22,"<?xml version=""1.0""?>\n<Clock xmlns:dt=""urn:schemas-microsoft-com:datatypes""><Description dt:dt=""string"">E-Prime Primary Realtime Clock</Description><StartTime><Timestamp dt:dt=""int"">0</Timestamp><DateUtc dt:dt=""string"">2016-12-06T02:02:57Z</DateUtc></StartTime><FrequencyChanges><FrequencyChange><Frequency dt:dt=""r8"">2539101</Frequency><Timestamp dt:dt=""r8"">8252178452</Timestamp><Current dt:dt=""r8"">0</Current><DateUtc dt:dt=""string"">2016-12-06T02:02:57Z</DateUtc></FrequencyChange></FrequencyChanges></Clock>\n",KoreanPoliteness_F0INT_KOR-001-1,60.145,1.0.0.0,1,-337277273,Professional,2.0.10.353,2.0.10.353,12/06/2016,2016-12-06 __ 2:02:58,11:02:58,,female,2.0.10.248,2,2,1,2,Test,List1,1,,,,,,BlockProc,,,,,,,,,,SpeakerBlocks,,,,3,1,1,M,3,43,8,Low,1,Loud,3,TrialProc,0,8,-999999,24,501984,0,2,652,502636,StimList,3,M_3_3_con_Low_Loud.wav,3,22,1,43,22
KoreanPoliteness_F0INT_KOR,1,2,22,"<?xml version=""1.0""?>\n<Clock xmlns:dt=""urn:schemas-microsoft-com:datatypes""><Description dt:dt=""string"">E-Prime Primary Realtime Clock</Description><StartTime><Timestamp dt:dt=""int"">0</Timestamp><DateUtc dt:dt=""string"">2016-12-06T02:02:57Z</DateUtc></StartTime><FrequencyChanges><FrequencyChange><Frequency dt:dt=""r8"">2539101</Frequency><Timestamp dt:dt=""r8"">8252178452</Timestamp><Current dt:dt=""r8"">0</Current><DateUtc dt:dt=""string"">2016-12-06T02:02:57Z</DateUtc></FrequencyChange></FrequencyChanges></Clock>\n",KoreanPoliteness_F0INT_KOR-001-1,60.145,1.0.0.0,1,-337277273,Professional,2.0.10.353,2.0.10.353,12/06/2016,2016-12-06 __ 2:02:58,11:02:58,,female,2.0.10.248,2,2,1,2,Test,List1,1,,,,,,BlockProc,,,,,,,,,,SpeakerBlocks,,,,3,1,1,M,3,44,8,Mid,2,Quie,1,TrialProc,0,8,-999999,28,506307,0,2,283,506590,StimList,5,M_3_5_con_Mid_Quie.wav,3,45,1,44,45
KoreanPoliteness_F0INT_KOR,1,2,22,"<?xml version=""1.0""?>\n<Clock xmlns:dt=""urn:schemas-microsoft-com:datatypes""><Description dt:dt=""string"">E-Prime Primary Realtime Clock</Description><StartTime><Timestamp dt:dt=""int"">0</Timestamp><DateUtc dt:dt=""string"">2016-12-06T02:02:57Z</DateUtc></StartTime><FrequencyChanges><FrequencyChange><Frequency dt:dt=""r8"">2539101</Frequency><Timestamp dt:dt=""r8"">8252178452</Timestamp><Current dt:dt=""r8"">0</Current><DateUtc dt:dt=""string"">2016-12-06T02:02:57Z</DateUtc></FrequencyChange></FrequencyChanges></Clock>\n",KoreanPoliteness_F0INT_KOR-001-1,60.145,1.0.0.0,1,-337277273,Professional,2.0.10.353,2.0.10.353,12/06/2016,2016-12-06 __ 2:02:58,11:02:58,,female,2.0.10.248,2,2,1,2,Test,List1,1,,,,,,BlockProc,,,,,,,,,,SpeakerBlocks,,,,3,1,1,M,3,45,8,Mid,2,Quie,1,TrialProc,0,8,-999999,13,509682,0,2,357,510039,StimList,7,M_3_7_con_Mid_Quie.wav,3,63,1,45,63
KoreanPoliteness_F0INT_KOR,1,2,22,"<?xml version=""1.0""?>\n<Clock xmlns:dt=""urn:schemas-microsoft-com:datatypes""><Description dt:dt=""string"">E-Prime Primary Realtime Clock</Description><StartTime><Timestamp dt:dt=""int"">0</Timestamp><DateUtc dt:dt=""string"">2016-12-06T02:02:57Z</DateUtc></StartTime><FrequencyChanges><FrequencyChange><Frequency dt:dt=""r8"">2539101</Frequency><Timestamp dt:dt=""r8"">8252178452</Timestamp><Current dt:dt=""r8"">0</Current><DateUtc dt:dt=""string"">2016-12-06T02:02:57Z</DateUtc></FrequencyChange></FrequencyChanges></Clock>\n",KoreanPoliteness_F0INT_KOR-001-1,60.145,1.0.0.0,1,-337277273,Professional,2.0.10.353,2.0.10.353,12/06/2016,2016-12-06 __ 2:02:58,11:02:58,,female,2.0.10.248,2,2,1,2,Test,List1,1,,,,,,BlockProc,,,,,,,,,,SpeakerBlocks,,,,3,1,1,M,3,46,8,Mid,2,Loud,3,TrialProc,0,8,-999999,14,513042,0,2,599,513641,StimList,8,M_3_8_con_Mid_Loud.wav,3,70,1,46,70
KoreanPoliteness_F0INT_KOR,1,2,22,"<?xml version=""1.0""?>\n<Clock xmlns:dt=""urn:schemas-microsoft-com:datatypes""><Description dt:dt=""string"">E-Prime Primary Realtime Clock</Description><StartTime><Timestamp dt:dt=""int"">0</Timestamp><DateUtc dt:dt=""string"">2016-12-06T02:02:57Z</DateUtc></StartTime><FrequencyChanges><FrequencyChange><Frequency dt:dt=""r8"">2539101</Frequency><Timestamp dt:dt=""r8"">8252178452</Timestamp><Current dt:dt=""r8"">0</Current><DateUtc dt:dt=""string"">2016-12-06T02:02:57Z</DateUtc></FrequencyChange></FrequencyChanges></Clock>\n",KoreanPoliteness_F0INT_KOR-001-1,60.145,1.0.0.0,1,-337277273,Professional,2.0.10.353,2.0.10.353,12/06/2016,2016-12-06 __ 2:02:58,11:02:58,,female,2.0.10.248,2,2,1,2,Test,List1,1,,,,,,BlockProc,,,,,,,,,,SpeakerBlocks,,,,3,1,1,M,3,47,8,Mid,2,Neut,2,TrialProc,0,8,-999999,13,516782,0,2,376,517158,StimList,7,M_3_7_con_Mid_Neut.wav,3,62,1,47,62
KoreanPoliteness_F0INT_KOR,1,2,22,"<?xml version=""1.0""?>\n<Clock xmlns:dt=""urn:schemas-microsoft-com:datatypes""><Description dt:dt=""string"">E-Prime Primary Realtime Clock</Description><StartTime><Timestamp dt:dt=""int"">0</Timestamp><DateUtc dt:dt=""string"">2016-12-06T02:02:57Z</DateUtc></StartTime><FrequencyChanges><FrequencyChange><Frequency dt:dt=""r8"">2539101</Frequency><Timestamp dt:dt=""r8"">8252178452</Timestamp><Current dt:dt=""r8"">0</Current><DateUtc dt:dt=""string"">2016-12-06T02:02:57Z</DateUtc></FrequencyChange></FrequencyChanges></Clock>\n",KoreanPoliteness_F0INT_KOR-001-1,60.145,1.0.0.0,1,-337277273,Professional,2.0.10.353,2.0.10.353,12/06/2016,2016-12-06 __ 2:02:58,11:02:58,,female,2.0.10.248,2,2,1,2,Test,List1,1,,,,,,BlockProc,,,,,,,,,,SpeakerBlocks,,,,3,1,1,M,3,48,8,Low,1,Neut,2,TrialProc,1,8,-999999,21,520290,0,8,330,520620,StimList,4,M_3_4_con_Low_Neut.wav,3,32,1,48,32
KoreanPoliteness_F0INT_KOR,1,2,22,"<?xml version=""1.0""?>\n<Clock xmlns:dt=""urn:schemas-microsoft-com:datatypes""><Description dt:dt=""string"">E-Prime Primary Realtime Clock</Description><StartTime><Timestamp dt:dt=""int"">0</Timestamp><DateUtc dt:dt=""string"">2016-12-06T02:02:57Z</DateUtc></StartTime><FrequencyChanges><FrequencyChange><Frequency dt:dt=""r8"">2539101</Frequency><Timestamp dt:dt=""r8"">8252178452</Timestamp><Current dt:dt=""r8"">0</Current><DateUtc dt:dt=""string"">2016-12-06T02:02:57Z</DateUtc></FrequencyChange></FrequencyChanges></Clock>\n",KoreanPoliteness_F0INT_KOR-001-1,60.145,1.0.0.0,1,-337277273,Professional,2.0.10.353,2.0.10.353,12/06/2016,2016-12-06 __ 2:02:58,11:02:58,,female,2.0.10.248,2,2,1,2,Test,List1,1,,,,,,BlockProc,,,,,,,,,,SpeakerBlocks,,,,3,1,1,M,3,49,8,Mid,2,Quie,1,TrialProc,0,8,-999999,18,523698,0,2,1143,524841,StimList,2,M_3_2_con_Mid_Quie.wav,3,18,1,49,18
KoreanPoliteness_F0INT_KOR,1,2,22,"<?xml version=""1.0""?>\n<Clock xmlns:dt=""urn:schemas-microsoft-com:datatypes""><Description dt:dt=""string"">E-Prime Primary Realtime Clock</Description><StartTime><Timestamp dt:dt=""int"">0</Timestamp><DateUtc dt:dt=""string"">2016-12-06T02:02:57Z</DateUtc></StartTime><FrequencyChanges><FrequencyChange><Frequency dt:dt=""r8"">2539101</Frequency><Timestamp dt:dt=""r8"">8252178452</Timestamp><Current dt:dt=""r8"">0</Current><DateUtc dt:dt=""string"">2016-12-06T02:02:57Z</DateUtc></FrequencyChange></FrequencyChanges></Clock>\n",KoreanPoliteness_F0INT_KOR-001-1,60.145,1.0.0.0,1,-337277273,Professional,2.0.10.353,2.0.10.353,12/06/2016,2016-12-06 __ 2:02:58,11:02:58,,female,2.0.10.248,2,2,1,2,Test,List1,1,,,,,,BlockProc,,,,,,,,,,SpeakerBlocks,,,,3,1,1,M,3,50,8,Low,1,Neut,2,TrialProc,0,8,-999999,17,527955,0,2,864,528819,StimList,7,M_3_7_con_Low_Neut.wav,3,59,1,50,59
KoreanPoliteness_F0INT_KOR,1,2,22,"<?xml version=""1.0""?>\n<Clock xmlns:dt=""urn:schemas-microsoft-com:datatypes""><Description dt:dt=""string"">E-Prime Primary Realtime Clock</Description><StartTime><Timestamp dt:dt=""int"">0</Timestamp><DateUtc dt:dt=""string"">2016-12-06T02:02:57Z</DateUtc></StartTime><FrequencyChanges><FrequencyChange><Frequency dt:dt=""r8"">2539101</Frequency><Timestamp dt:dt=""r8"">8252178452</Timestamp><Current dt:dt=""r8"">0</Current><DateUtc dt:dt=""string"">2016-12-06T02:02:57Z</DateUtc></FrequencyChange></FrequencyChanges></Clock>\n",KoreanPoliteness_F0INT_KOR-001-1,60.145,1.0.0.0,1,-337277273,Professional,2.0.10.353,2.0.10.353,12/06/2016,2016-12-06 __ 2:02:58,11:02:58,,female,2.0.10.248,2,2,1,2,Test,List1,1,,,,,,BlockProc,,,,,,,,,,SpeakerBlocks,,,,3,1,1,M,3,51,8,High,3,Quie,1,TrialProc,1,8,-999999,19,533358,0,8,559,533917,StimList,3,M_3_3_con_High_Quie.wav,3,21,1,51,21
KoreanPoliteness_F0INT_KOR,1,2,22,"<?xml version=""1.0""?>\n<Clock xmlns:dt=""urn:schemas-microsoft-com:datatypes""><Description dt:dt=""string"">E-Prime Primary Realtime Clock</Description><StartTime><Timestamp dt:dt=""int"">0</Timestamp><DateUtc dt:dt=""string"">2016-12-06T02:02:57Z</DateUtc></StartTime><FrequencyChanges><FrequencyChange><Frequency dt:dt=""r8"">2539101</Frequency><Timestamp dt:dt=""r8"">8252178452</Timestamp><Current dt:dt=""r8"">0</Current><DateUtc dt:dt=""string"">2016-12-06T02:02:57Z</DateUtc></FrequencyChange></FrequencyChanges></Clock>\n",KoreanPoliteness_F0INT_KOR-001-1,60.145,1.0.0.0,1,-337277273,Professional,2.0.10.353,2.0.10.353,12/06/2016,2016-12-06 __ 2:02:58,11:02:58,,female,2.0.10.248,2,2,1,2,Test,List1,1,,,,,,BlockProc,,,,,,,,,,SpeakerBlocks,,,,3,1,1,M,3,52,8,Mid,2,Neut,2,TrialProc,1,8,-999999,26,537964,0,8,1212,539176,StimList,5,M_3_5_con_Mid_Neut.wav,3,44,1,52,44
KoreanPoliteness_F0INT_KOR,1,2,22,"<?xml version=""1.0""?>\n<Clock xmlns:dt=""urn:schemas-microsoft-com:datatypes""><Description dt:dt=""string"">E-Prime Primary Realtime Clock</Description><StartTime><Timestamp dt:dt=""int"">0</Timestamp><DateUtc dt:dt=""string"">2016-12-06T02:02:57Z</DateUtc></StartTime><FrequencyChanges><FrequencyChange><Frequency dt:dt=""r8"">2539101</Frequency><Timestamp dt:dt=""r8"">8252178452</Timestamp><Current dt:dt=""r8"">0</Current><DateUtc dt:dt=""string"">2016-12-06T02:02:57Z</DateUtc></FrequencyChange></FrequencyChanges></Clock>\n",KoreanPoliteness_F0INT_KOR-001-1,60.145,1.0.0.0,1,-337277273,Professional,2.0.10.353,2.0.10.353,12/06/2016,2016-12-06 __ 2:02:58,11:02:58,,female,2.0.10.248,2,2,1,2,Test,List1,1,,,,,,BlockProc,,,,,,,,,,SpeakerBlocks,,,,3,1,1,M,3,53,8,Low,1,Neut,2,TrialProc,0,8,-999999,16,542154,0,2,1982,544136,StimList,8,M_3_8_con_Low_Neut.wav,3,68,1,53,68
KoreanPoliteness_F0INT_KOR,1,2,22,"<?xml version=""1.0""?>\n<Clock xmlns:dt=""urn:schemas-microsoft-com:datatypes""><Description dt:dt=""string"">E-Prime Primary Realtime Clock</Description><StartTime><Timestamp dt:dt=""int"">0</Timestamp><DateUtc dt:dt=""string"">2016-12-06T02:02:57Z</DateUtc></StartTime><FrequencyChanges><FrequencyChange><Frequency dt:dt=""r8"">2539101</Frequency><Timestamp dt:dt=""r8"">8252178452</Timestamp><Current dt:dt=""r8"">0</Current><DateUtc dt:dt=""string"">2016-12-06T02:02:57Z</DateUtc></FrequencyChange></FrequencyChanges></Clock>\n",KoreanPoliteness_F0INT_KOR-001-1,60.145,1.0.0.0,1,-337277273,Professional,2.0.10.353,2.0.10.353,12/06/2016,2016-12-06 __ 2:02:58,11:02:58,,female,2.0.10.248,2,2,1,2,Test,List1,1,,,,,,BlockProc,,,,,,,,,,SpeakerBlocks,,,,3,1,1,M,3,54,8,Mid,2,Quie,1,TrialProc,1,8,-999999,29,547108,0,8,1463,548571,StimList,1,M_3_1_con_Mid_Quie.wav,3,9,1,54,9
KoreanPoliteness_F0INT_KOR,1,2,22,"<?xml version=""1.0""?>\n<Clock xmlns:dt=""urn:schemas-microsoft-com:datatypes""><Description dt:dt=""string"">E-Prime Primary Realtime Clock</Description><StartTime><Timestamp dt:dt=""int"">0</Timestamp><DateUtc dt:dt=""string"">2016-12-06T02:02:57Z</DateUtc></StartTime><FrequencyChanges><FrequencyChange><Frequency dt:dt=""r8"">2539101</Frequency><Timestamp dt:dt=""r8"">8252178452</Timestamp><Current dt:dt=""r8"">0</Current><DateUtc dt:dt=""string"">2016-12-06T02:02:57Z</DateUtc></FrequencyChange></FrequencyChanges></Clock>\n",KoreanPoliteness_F0INT_KOR-001-1,60.145,1.0.0.0,1,-337277273,Professional,2.0.10.353,2.0.10.353,12/06/2016,2016-12-06 __ 2:02:58,11:02:58,,female,2.0.10.248,2,2,1,2,Test,List1,1,,,,,,BlockProc,,,,,,,,,,SpeakerBlocks,,,,3,1,1,M,3,55,8,High,3,Neut,2,TrialProc,1,8,-999999,24,551531,0,8,818,552349,StimList,8,M_3_8_con_High_Neut.wav,3,65,1,55,65
KoreanPoliteness_F0INT_KOR,1,2,22,"<?xml version=""1.0""?>\n<Clock xmlns:dt=""urn:schemas-microsoft-com:datatypes""><Description dt:dt=""string"">E-Prime Primary Realtime Clock</Description><StartTime><Timestamp dt:dt=""int"">0</Timestamp><DateUtc dt:dt=""string"">2016-12-06T02:02:57Z</DateUtc></StartTime><FrequencyChanges><FrequencyChange><Frequency dt:dt=""r8"">2539101</Frequency><Timestamp dt:dt=""r8"">8252178452</Timestamp><Current dt:dt=""r8"">0</Current><DateUtc dt:dt=""string"">2016-12-06T02:02:57Z</DateUtc></FrequencyChange></FrequencyChanges></Clock>\n",KoreanPoliteness_F0INT_KOR-001-1,60.145,1.0.0.0,1,-337277273,Professional,2.0.10.353,2.0.10.353,12/06/2016,2016-12-06 __ 2:02:58,11:02:58,,female,2.0.10.248,2,2,1,2,Test,List1,1,,,,,,BlockProc,,,,,,,,,,SpeakerBlocks,,,,3,1,1,M,3,56,8,High,3,Quie,1,TrialProc,1,8,-999999,18,555206,0,8,503,555709,StimList,1,M_3_1_con_High_Quie.wav,3,3,1,56,3
KoreanPoliteness_F0INT_KOR,1,2,22,"<?xml version=""1.0""?>\n<Clock xmlns:dt=""urn:schemas-microsoft-com:datatypes""><Description dt:dt=""string"">E-Prime Primary Realtime Clock</Description><StartTime><Timestamp dt:dt=""int"">0</Timestamp><DateUtc dt:dt=""string"">2016-12-06T02:02:57Z</DateUtc></StartTime><FrequencyChanges><FrequencyChange><Frequency dt:dt=""r8"">2539101</Frequency><Timestamp dt:dt=""r8"">8252178452</Timestamp><Current dt:dt=""r8"">0</Current><DateUtc dt:dt=""string"">2016-12-06T02:02:57Z</DateUtc></FrequencyChange></FrequencyChanges></Clock>\n",KoreanPoliteness_F0INT_KOR-001-1,60.145,1.0.0.0,1,-337277273,Professional,2.0.10.353,2.0.10.353,12/06/2016,2016-12-06 __ 2:02:58,11:02:58,,female,2.0.10.248,2,2,1,2,Test,List1,1,,,,,,BlockProc,,,,,,,,,,SpeakerBlocks,,,,3,1,1,M,3,57,8,Mid,2,Quie,1,TrialProc,0,8,-999999,19,558797,0,2,375,559172,StimList,4,M_3_4_con_Mid_Quie.wav,3,36,1,57,36
KoreanPoliteness_F0INT_KOR,1,2,22,"<?xml version=""1.0""?>\n<Clock xmlns:dt=""urn:schemas-microsoft-com:datatypes""><Description dt:dt=""string"">E-Prime Primary Realtime Clock</Description><StartTime><Timestamp dt:dt=""int"">0</Timestamp><DateUtc dt:dt=""string"">2016-12-06T02:02:57Z</DateUtc></StartTime><FrequencyChanges><FrequencyChange><Frequency dt:dt=""r8"">2539101</Frequency><Timestamp dt:dt=""r8"">8252178452</Timestamp><Current dt:dt=""r8"">0</Current><DateUtc dt:dt=""string"">2016-12-06T02:02:57Z</DateUtc></FrequencyChange></FrequencyChanges></Clock>\n",KoreanPoliteness_F0INT_KOR-001-1,60.145,1.0.0.0,1,-337277273,Professional,2.0.10.353,2.0.10.353,12/06/2016,2016-12-06 __ 2:02:58,11:02:58,,female,2.0.10.248,2,2,1,2,Test,List1,1,,,,,,BlockProc,,,,,,,,,,SpeakerBlocks,,,,3,1,1,M,3,58,8,High,3,Loud,3,TrialProc,1,8,-999999,25,561973,0,8,357,562330,StimList,1,M_3_1_con_High_Loud.wav,3,1,1,58,1
KoreanPoliteness_F0INT_KOR,1,2,22,"<?xml version=""1.0""?>\n<Clock xmlns:dt=""urn:schemas-microsoft-com:datatypes""><Description dt:dt=""string"">E-Prime Primary Realtime Clock</Description><StartTime><Timestamp dt:dt=""int"">0</Timestamp><DateUtc dt:dt=""string"">2016-12-06T02:02:57Z</DateUtc></StartTime><FrequencyChanges><FrequencyChange><Frequency dt:dt=""r8"">2539101</Frequency><Timestamp dt:dt=""r8"">8252178452</Timestamp><Current dt:dt=""r8"">0</Current><DateUtc dt:dt=""string"">2016-12-06T02:02:57Z</DateUtc></FrequencyChange></FrequencyChanges></Clock>\n",KoreanPoliteness_F0INT_KOR-001-1,60.145,1.0.0.0,1,-337277273,Professional,2.0.10.353,2.0.10.353,12/06/2016,2016-12-06 __ 2:02:58,11:02:58,,female,2.0.10.248,2,2,1,2,Test,List1,1,,,,,,BlockProc,,,,,,,,,,SpeakerBlocks,,,,3,1,1,M,3,59,8,High,3,Loud,3,TrialProc,0,8,-999999,26,565414,0,2,870,566284,StimList,4,M_3_4_con_High_Loud.wav,3,28,1,59,28
KoreanPoliteness_F0INT_KOR,1,2,22,"<?xml version=""1.0""?>\n<Clock xmlns:dt=""urn:schemas-microsoft-com:datatypes""><Description dt:dt=""string"">E-Prime Primary Realtime Clock</Description><StartTime><Timestamp dt:dt=""int"">0</Timestamp><DateUtc dt:dt=""string"">2016-12-06T02:02:57Z</DateUtc></StartTime><FrequencyChanges><FrequencyChange><Frequency dt:dt=""r8"">2539101</Frequency><Timestamp dt:dt=""r8"">8252178452</Timestamp><Current dt:dt=""r8"">0</Current><DateUtc dt:dt=""string"">2016-12-06T02:02:57Z</DateUtc></FrequencyChange></FrequencyChanges></Clock>\n",KoreanPoliteness_F0INT_KOR-001-1,60.145,1.0.0.0,1,-337277273,Professional,2.0.10.353,2.0.10.353,12/06/2016,2016-12-06 __ 2:02:58,11:02:58,,female,2.0.10.248,2,2,1,2,Test,List1,1,,,,,,BlockProc,,,,,,,,,,SpeakerBlocks,,,,3,1,1,M,3,60,8,Low,1,Quie,1,TrialProc,0,8,-999999,24,569172,0,2,1060,570232,StimList,1,M_3_1_con_Low_Quie.wav,3,6,1,60,6
KoreanPoliteness_F0INT_KOR,1,2,22,"<?xml version=""1.0""?>\n<Clock xmlns:dt=""urn:schemas-microsoft-com:datatypes""><Description dt:dt=""string"">E-Prime Primary Realtime Clock</Description><StartTime><Timestamp dt:dt=""int"">0</Timestamp><DateUtc dt:dt=""string"">2016-12-06T02:02:57Z</DateUtc></StartTime><FrequencyChanges><FrequencyChange><Frequency dt:dt=""r8"">2539101</Frequency><Timestamp dt:dt=""r8"">8252178452</Timestamp><Current dt:dt=""r8"">0</Current><DateUtc dt:dt=""string"">2016-12-06T02:02:57Z</DateUtc></FrequencyChange></FrequencyChanges></Clock>\n",KoreanPoliteness_F0INT_KOR-001-1,60.145,1.0.0.0,1,-337277273,Professional,2.0.10.353,2.0.10.353,12/06/2016,2016-12-06 __ 2:02:58,11:02:58,,female,2.0.10.248,2,2,1,2,Test,List1,1,,,,,,BlockProc,,,,,,,,,,SpeakerBlocks,,,,3,1,1,M,3,61,8,Low,1,Quie,1,TrialProc,0,8,-999999,15,573312,0,2,926,574238,StimList,7,M_3_7_con_Low_Quie.wav,3,60,1,61,60
KoreanPoliteness_F0INT_KOR,1,2,22,"<?xml version=""1.0""?>\n<Clock xmlns:dt=""urn:schemas-microsoft-com:datatypes""><Description dt:dt=""string"">E-Prime Primary Realtime Clock</Description><StartTime><Timestamp dt:dt=""int"">0</Timestamp><DateUtc dt:dt=""string"">2016-12-06T02:02:57Z</DateUtc></StartTime><FrequencyChanges><FrequencyChange><Frequency dt:dt=""r8"">2539101</Frequency><Timestamp dt:dt=""r8"">8252178452</Timestamp><Current dt:dt=""r8"">0</Current><DateUtc dt:dt=""string"">2016-12-06T02:02:57Z</DateUtc></FrequencyChange></FrequencyChanges></Clock>\n",KoreanPoliteness_F0INT_KOR-001-1,60.145,1.0.0.0,1,-337277273,Professional,2.0.10.353,2.0.10.353,12/06/2016,2016-12-06 __ 2:02:58,11:02:58,,female,2.0.10.248,2,2,1,2,Test,List1,1,,,,,,BlockProc,,,,,,,,,,SpeakerBlocks,,,,3,1,1,M,3,62,8,High,3,Neut,2,TrialProc,1,8,-999999,29,577369,0,8,413,577782,StimList,4,M_3_4_con_High_Neut.wav,3,29,1,62,29
KoreanPoliteness_F0INT_KOR,1,2,22,"<?xml version=""1.0""?>\n<Clock xmlns:dt=""urn:schemas-microsoft-com:datatypes""><Description dt:dt=""string"">E-Prime Primary Realtime Clock</Description><StartTime><Timestamp dt:dt=""int"">0</Timestamp><DateUtc dt:dt=""string"">2016-12-06T02:02:57Z</DateUtc></StartTime><FrequencyChanges><FrequencyChange><Frequency dt:dt=""r8"">2539101</Frequency><Timestamp dt:dt=""r8"">8252178452</Timestamp><Current dt:dt=""r8"">0</Current><DateUtc dt:dt=""string"">2016-12-06T02:02:57Z</DateUtc></FrequencyChange></FrequencyChanges></Clock>\n",KoreanPoliteness_F0INT_KOR-001-1,60.145,1.0.0.0,1,-337277273,Professional,2.0.10.353,2.0.10.353,12/06/2016,2016-12-06 __ 2:02:58,11:02:58,,female,2.0.10.248,2,2,1,2,Test,List1,1,,,,,,BlockProc,,,,,,,,,,SpeakerBlocks,,,,3,1,1,M,3,63,8,High,3,Neut,2,TrialProc,0,8,-999999,26,580943,0,2,990,581933,StimList,7,M_3_7_con_High_Neut.wav,3,56,1,63,56
KoreanPoliteness_F0INT_KOR,1,2,22,"<?xml version=""1.0""?>\n<Clock xmlns:dt=""urn:schemas-microsoft-com:datatypes""><Description dt:dt=""string"">E-Prime Primary Realtime Clock</Description><StartTime><Timestamp dt:dt=""int"">0</Timestamp><DateUtc dt:dt=""string"">2016-12-06T02:02:57Z</DateUtc></StartTime><FrequencyChanges><FrequencyChange><Frequency dt:dt=""r8"">2539101</Frequency><Timestamp dt:dt=""r8"">8252178452</Timestamp><Current dt:dt=""r8"">0</Current><DateUtc dt:dt=""string"">2016-12-06T02:02:57Z</DateUtc></FrequencyChange></FrequencyChanges></Clock>\n",KoreanPoliteness_F0INT_KOR-001-1,60.145,1.0.0.0,1,-337277273,Professional,2.0.10.353,2.0.10.353,12/06/2016,2016-12-06 __ 2:02:58,11:02:58,,female,2.0.10.248,2,2,1,2,Test,List1,1,,,,,,BlockProc,,,,,,,,,,SpeakerBlocks,,,,3,1,1,M,3,64,8,High,3,Quie,1,TrialProc,0,8,-999999,22,585217,0,2,1935,587152,StimList,6,M_3_6_con_High_Quie.wav,3,48,1,64,48
KoreanPoliteness_F0INT_KOR,1,2,22,"<?xml version=""1.0""?>\n<Clock xmlns:dt=""urn:schemas-microsoft-com:datatypes""><Description dt:dt=""string"">E-Prime Primary Realtime Clock</Description><StartTime><Timestamp dt:dt=""int"">0</Timestamp><DateUtc dt:dt=""string"">2016-12-06T02:02:57Z</DateUtc></StartTime><FrequencyChanges><FrequencyChange><Frequency dt:dt=""r8"">2539101</Frequency><Timestamp dt:dt=""r8"">8252178452</Timestamp><Current dt:dt=""r8"">0</Current><DateUtc dt:dt=""string"">2016-12-06T02:02:57Z</DateUtc></FrequencyChange></FrequencyChanges></Clock>\n",KoreanPoliteness_F0INT_KOR-001-1,60.145,1.0.0.0,1,-337277273,Professional,2.0.10.353,2.0.10.353,12/06/2016,2016-12-06 __ 2:02:58,11:02:58,,female,2.0.10.248,2,2,1,2,Test,List1,1,,,,,,BlockProc,,,,,,,,,,SpeakerBlocks,,,,3,1,1,M,3,65,8,Low,1,Neut,2,TrialProc,1,8,-999999,26,590803,0,8,759,591562,StimList,5,M_3_5_con_Low_Neut.wav,3,41,1,65,41
KoreanPoliteness_F0INT_KOR,1,2,22,"<?xml version=""1.0""?>\n<Clock xmlns:dt=""urn:schemas-microsoft-com:datatypes""><Description dt:dt=""string"">E-Prime Primary Realtime Clock</Description><StartTime><Timestamp dt:dt=""int"">0</Timestamp><DateUtc dt:dt=""string"">2016-12-06T02:02:57Z</DateUtc></StartTime><FrequencyChanges><FrequencyChange><Frequency dt:dt=""r8"">2539101</Frequency><Timestamp dt:dt=""r8"">8252178452</Timestamp><Current dt:dt=""r8"">0</Current><DateUtc dt:dt=""string"">2016-12-06T02:02:57Z</DateUtc></FrequencyChange></FrequencyChanges></Clock>\n",KoreanPoliteness_F0INT_KOR-001-1,60.145,1.0.0.0,1,-337277273,Professional,2.0.10.353,2.0.10.353,12/06/2016,2016-12-06 __ 2:02:58,11:02:58,,female,2.0.10.248,2,2,1,2,Test,List1,1,,,,,,BlockProc,,,,,,,,,,SpeakerBlocks,,,,3,1,1,M,3,66,8,Mid,2,Neut,2,TrialProc,0,8,-999999,25,594594,0,2,1126,595720,StimList,4,M_3_4_con_Mid_Neut.wav,3,35,1,66,35
KoreanPoliteness_F0INT_KOR,1,2,22,"<?xml version=""1.0""?>\n<Clock xmlns:dt=""urn:schemas-microsoft-com:datatypes""><Description dt:dt=""string"">E-Prime Primary Realtime Clock</Description><StartTime><Timestamp dt:dt=""int"">0</Timestamp><DateUtc dt:dt=""string"">2016-12-06T02:02:57Z</DateUtc></StartTime><FrequencyChanges><FrequencyChange><Frequency dt:dt=""r8"">2539101</Frequency><Timestamp dt:dt=""r8"">8252178452</Timestamp><Current dt:dt=""r8"">0</Current><DateUtc dt:dt=""string"">2016-12-06T02:02:57Z</DateUtc></FrequencyChange></FrequencyChanges></Clock>\n",KoreanPoliteness_F0INT_KOR-001-1,60.145,1.0.0.0,1,-337277273,Professional,2.0.10.353,2.0.10.353,12/06/2016,2016-12-06 __ 2:02:58,11:02:58,,female,2.0.10.248,2,2,1,2,Test,List1,1,,,,,,BlockProc,,,,,,,,,,SpeakerBlocks,,,,3,1,1,M,3,67,8,Mid,2,Quie,1,TrialProc,1,8,-999999,20,598651,0,8,1959,600610,StimList,8,M_3_8_con_Mid_Quie.wav,3,72,1,67,72
KoreanPoliteness_F0INT_KOR,1,2,22,"<?xml version=""1.0""?>\n<Clock xmlns:dt=""urn:schemas-microsoft-com:datatypes""><Description dt:dt=""string"">E-Prime Primary Realtime Clock</Description><StartTime><Timestamp dt:dt=""int"">0</Timestamp><DateUtc dt:dt=""string"">2016-12-06T02:02:57Z</DateUtc></StartTime><FrequencyChanges><FrequencyChange><Frequency dt:dt=""r8"">2539101</Frequency><Timestamp dt:dt=""r8"">8252178452</Timestamp><Current dt:dt=""r8"">0</Current><DateUtc dt:dt=""string"">2016-12-06T02:02:57Z</DateUtc></FrequencyChange></FrequencyChanges></Clock>\n",KoreanPoliteness_F0INT_KOR-001-1,60.145,1.0.0.0,1,-337277273,Professional,2.0.10.353,2.0.10.353,12/06/2016,2016-12-06 __ 2:02:58,11:02:58,,female,2.0.10.248,2,2,1,2,Test,List1,1,,,,,,BlockProc,,,,,,,,,,SpeakerBlocks,,,,3,1,1,M,3,68,8,Mid,2,Loud,3,TrialProc,1,8,-999999,14,604271,0,8,415,604686,StimList,6,M_3_6_con_Mid_Loud.wav,3,52,1,68,52
KoreanPoliteness_F0INT_KOR,1,2,22,"<?xml version=""1.0""?>\n<Clock xmlns:dt=""urn:schemas-microsoft-com:datatypes""><Description dt:dt=""string"">E-Prime Primary Realtime Clock</Description><StartTime><Timestamp dt:dt=""int"">0</Timestamp><DateUtc dt:dt=""string"">2016-12-06T02:02:57Z</DateUtc></StartTime><FrequencyChanges><FrequencyChange><Frequency dt:dt=""r8"">2539101</Frequency><Timestamp dt:dt=""r8"">8252178452</Timestamp><Current dt:dt=""r8"">0</Current><DateUtc dt:dt=""string"">2016-12-06T02:02:57Z</DateUtc></FrequencyChange></FrequencyChanges></Clock>\n",KoreanPoliteness_F0INT_KOR-001-1,60.145,1.0.0.0,1,-337277273,Professional,2.0.10.353,2.0.10.353,12/06/2016,2016-12-06 __ 2:02:58,11:02:58,,female,2.0.10.248,2,2,1,2,Test,List1,1,,,,,,BlockProc,,,,,,,,,,SpeakerBlocks,,,,3,1,1,M,3,69,8,Low,1,Neut,2,TrialProc,1,8,-999999,28,609225,0,8,294,609519,StimList,3,M_3_3_con_Low_Neut.wav,3,23,1,69,23
KoreanPoliteness_F0INT_KOR,1,2,22,"<?xml version=""1.0""?>\n<Clock xmlns:dt=""urn:schemas-microsoft-com:datatypes""><Description dt:dt=""string"">E-Prime Primary Realtime Clock</Description><StartTime><Timestamp dt:dt=""int"">0</Timestamp><DateUtc dt:dt=""string"">2016-12-06T02:02:57Z</DateUtc></StartTime><FrequencyChanges><FrequencyChange><Frequency dt:dt=""r8"">2539101</Frequency><Timestamp dt:dt=""r8"">8252178452</Timestamp><Current dt:dt=""r8"">0</Current><DateUtc dt:dt=""string"">2016-12-06T02:02:57Z</DateUtc></FrequencyChange></FrequencyChanges></Clock>\n",KoreanPoliteness_F0INT_KOR-001-1,60.145,1.0.0.0,1,-337277273,Professional,2.0.10.353,2.0.10.353,12/06/2016,2016-12-06 __ 2:02:58,11:02:58,,female,2.0.10.248,2,2,1,2,Test,List1,1,,,,,,BlockProc,,,,,,,,,,SpeakerBlocks,,,,3,1,1,M,3,70,8,Mid,2,Neut,2,TrialProc,1,8,-999999,23,612401,0,8,1123,613524,StimList,8,M_3_8_con_Mid_Neut.wav,3,71,1,70,71
KoreanPoliteness_F0INT_KOR,1,2,22,"<?xml version=""1.0""?>\n<Clock xmlns:dt=""urn:schemas-microsoft-com:datatypes""><Description dt:dt=""string"">E-Prime Primary Realtime Clock</Description><StartTime><Timestamp dt:dt=""int"">0</Timestamp><DateUtc dt:dt=""string"">2016-12-06T02:02:57Z</DateUtc></StartTime><FrequencyChanges><FrequencyChange><Frequency dt:dt=""r8"">2539101</Frequency><Timestamp dt:dt=""r8"">8252178452</Timestamp><Current dt:dt=""r8"">0</Current><DateUtc dt:dt=""string"">2016-12-06T02:02:57Z</DateUtc></FrequencyChange></FrequencyChanges></Clock>\n",KoreanPoliteness_F0INT_KOR-001-1,60.145,1.0.0.0,1,-337277273,Professional,2.0.10.353,2.0.10.353,12/06/2016,2016-12-06 __ 2:02:58,11:02:58,,female,2.0.10.248,2,2,1,2,Test,List1,1,,,,,,BlockProc,,,,,,,,,,SpeakerBlocks,,,,3,1,1,M,3,71,8,High,3,Quie,1,TrialProc,0,8,0,20,616657,3010,,0,0,StimList,4,M_3_4_con_High_Quie.wav,3,30,1,71,30
KoreanPoliteness_F0INT_KOR,1,2,22,"<?xml version=""1.0""?>\n<Clock xmlns:dt=""urn:schemas-microsoft-com:datatypes""><Description dt:dt=""string"">E-Prime Primary Realtime Clock</Description><StartTime><Timestamp dt:dt=""int"">0</Timestamp><DateUtc dt:dt=""string"">2016-12-06T02:02:57Z</DateUtc></StartTime><FrequencyChanges><FrequencyChange><Frequency dt:dt=""r8"">2539101</Frequency><Timestamp dt:dt=""r8"">8252178452</Timestamp><Current dt:dt=""r8"">0</Current><DateUtc dt:dt=""string"">2016-12-06T02:02:57Z</DateUtc></FrequencyChange></FrequencyChanges></Clock>\n",KoreanPoliteness_F0INT_KOR-001-1,60.145,1.0.0.0,1,-337277273,Professional,2.0.10.353,2.0.10.353,12/06/2016,2016-12-06 __ 2:02:58,11:02:58,,female,2.0.10.248,2,2,1,2,Test,List1,1,,,,,,BlockProc,,,,,,,,,,SpeakerBlocks,,,,3,1,1,M,3,72,8,High,3,Loud,3,TrialProc,1,8,-999999,22,623308,0,8,557,623865,StimList,5,M_3_5_con_High_Loud.wav,3,37,1,72,37
KoreanPoliteness_F0INT_KOR,1,2,22,"<?xml version=""1.0""?>\n<Clock xmlns:dt=""urn:schemas-microsoft-com:datatypes""><Description dt:dt=""string"">E-Prime Primary Realtime Clock</Description><StartTime><Timestamp dt:dt=""int"">0</Timestamp><DateUtc dt:dt=""string"">2016-12-06T02:02:57Z</DateUtc></StartTime><FrequencyChanges><FrequencyChange><Frequency dt:dt=""r8"">2539101</Frequency><Timestamp dt:dt=""r8"">8252178452</Timestamp><Current dt:dt=""r8"">0</Current><DateUtc dt:dt=""string"">2016-12-06T02:02:57Z</DateUtc></FrequencyChange></FrequencyChanges></Clock>\n",KoreanPoliteness_F0INT_KOR-001-1,60.145,1.0.0.0,1,-337277273,Professional,2.0.10.353,2.0.10.353,12/06/2016,2016-12-06 __ 2:02:58,11:02:58,,female,2.0.10.248,2,2,1,2,Test,List1,2,,,,,,BlockProc,,,,,,,,,,SpeakerBlocks,,,,1,1,2,M,1,1,8,Mid,2,Loud,3,TrialProc,1,8,-999999,15,635512,0,8,726,636238,StimList,6,M_1_6_con_Mid_Loud.wav,1,52,2,73,52
KoreanPoliteness_F0INT_KOR,1,2,22,"<?xml version=""1.0""?>\n<Clock xmlns:dt=""urn:schemas-microsoft-com:datatypes""><Description dt:dt=""string"">E-Prime Primary Realtime Clock</Description><StartTime><Timestamp dt:dt=""int"">0</Timestamp><DateUtc dt:dt=""string"">2016-12-06T02:02:57Z</DateUtc></StartTime><FrequencyChanges><FrequencyChange><Frequency dt:dt=""r8"">2539101</Frequency><Timestamp dt:dt=""r8"">8252178452</Timestamp><Current dt:dt=""r8"">0</Current><DateUtc dt:dt=""string"">2016-12-06T02:02:57Z</DateUtc></FrequencyChange></FrequencyChanges></Clock>\n",KoreanPoliteness_F0INT_KOR-001-1,60.145,1.0.0.0,1,-337277273,Professional,2.0.10.353,2.0.10.353,12/06/2016,2016-12-06 __ 2:02:58,11:02:58,,female,2.0.10.248,2,2,1,2,Test,List1,2,,,,,,BlockProc,,,,,,,,,,SpeakerBlocks,,,,1,1,2,M,1,2,8,High,3,Loud,3,TrialProc,1,8,-999999,23,639802,0,8,573,640375,StimList,3,M_1_3_con_High_Loud.wav,1,19,2,74,19
KoreanPoliteness_F0INT_KOR,1,2,22,"<?xml version=""1.0""?>\n<Clock xmlns:dt=""urn:schemas-microsoft-com:datatypes""><Description dt:dt=""string"">E-Prime Primary Realtime Clock</Description><StartTime><Timestamp dt:dt=""int"">0</Timestamp><DateUtc dt:dt=""string"">2016-12-06T02:02:57Z</DateUtc></StartTime><FrequencyChanges><FrequencyChange><Frequency dt:dt=""r8"">2539101</Frequency><Timestamp dt:dt=""r8"">8252178452</Timestamp><Current dt:dt=""r8"">0</Current><DateUtc dt:dt=""string"">2016-12-06T02:02:57Z</DateUtc></FrequencyChange></FrequencyChanges></Clock>\n",KoreanPoliteness_F0INT_KOR-001-1,60.145,1.0.0.0,1,-337277273,Professional,2.0.10.353,2.0.10.353,12/06/2016,2016-12-06 __ 2:02:58,11:02:58,,female,2.0.10.248,2,2,1,2,Test,List1,2,,,,,,BlockProc,,,,,,,,,,SpeakerBlocks,,,,1,1,2,M,1,3,8,Low,1,Neut,2,TrialProc,0,8,-999999,14,643510,0,2,588,644098,StimList,2,M_1_2_con_Low_Neut.wav,1,14,2,75,14
KoreanPoliteness_F0INT_KOR,1,2,22,"<?xml version=""1.0""?>\n<Clock xmlns:dt=""urn:schemas-microsoft-com:datatypes""><Description dt:dt=""string"">E-Prime Primary Realtime Clock</Description><StartTime><Timestamp dt:dt=""int"">0</Timestamp><DateUtc dt:dt=""string"">2016-12-06T02:02:57Z</DateUtc></StartTime><FrequencyChanges><FrequencyChange><Frequency dt:dt=""r8"">2539101</Frequency><Timestamp dt:dt=""r8"">8252178452</Timestamp><Current dt:dt=""r8"">0</Current><DateUtc dt:dt=""string"">2016-12-06T02:02:57Z</DateUtc></FrequencyChange></FrequencyChanges></Clock>\n",KoreanPoliteness_F0INT_KOR-001-1,60.145,1.0.0.0,1,-337277273,Professional,2.0.10.353,2.0.10.353,12/06/2016,2016-12-06 __ 2:02:58,11:02:58,,female,2.0.10.248,2,2,1,2,Test,List1,2,,,,,,BlockProc,,,,,,,,,,SpeakerBlocks,,,,1,1,2,M,1,4,8,High,3,Loud,3,TrialProc,1,8,-999999,13,647251,0,8,244,647495,StimList,2,M_1_2_con_High_Loud.wav,1,10,2,76,10
KoreanPoliteness_F0INT_KOR,1,2,22,"<?xml version=""1.0""?>\n<Clock xmlns:dt=""urn:schemas-microsoft-com:datatypes""><Description dt:dt=""string"">E-Prime Primary Realtime Clock</Description><StartTime><Timestamp dt:dt=""int"">0</Timestamp><DateUtc dt:dt=""string"">2016-12-06T02:02:57Z</DateUtc></StartTime><FrequencyChanges><FrequencyChange><Frequency dt:dt=""r8"">2539101</Frequency><Timestamp dt:dt=""r8"">8252178452</Timestamp><Current dt:dt=""r8"">0</Current><DateUtc dt:dt=""string"">2016-12-06T02:02:57Z</DateUtc></FrequencyChange></FrequencyChanges></Clock>\n",KoreanPoliteness_F0INT_KOR-001-1,60.145,1.0.0.0,1,-337277273,Professional,2.0.10.353,2.0.10.353,12/06/2016,2016-12-06 __ 2:02:58,11:02:58,,female,2.0.10.248,2,2,1,2,Test,List1,2,,,,,,BlockProc,,,,,,,,,,SpeakerBlocks,,,,1,1,2,M,1,5,8,Mid,2,Loud,3,TrialProc,1,8,-999999,19,650526,0,8,470,650996,StimList,8,M_1_8_con_Mid_Loud.wav,1,70,2,77,70
KoreanPoliteness_F0INT_KOR,1,2,22,"<?xml version=""1.0""?>\n<Clock xmlns:dt=""urn:schemas-microsoft-com:datatypes""><Description dt:dt=""string"">E-Prime Primary Realtime Clock</Description><StartTime><Timestamp dt:dt=""int"">0</Timestamp><DateUtc dt:dt=""string"">2016-12-06T02:02:57Z</DateUtc></StartTime><FrequencyChanges><FrequencyChange><Frequency dt:dt=""r8"">2539101</Frequency><Timestamp dt:dt=""r8"">8252178452</Timestamp><Current dt:dt=""r8"">0</Current><DateUtc dt:dt=""string"">2016-12-06T02:02:57Z</DateUtc></FrequencyChange></FrequencyChanges></Clock>\n",KoreanPoliteness_F0INT_KOR-001-1,60.145,1.0.0.0,1,-337277273,Professional,2.0.10.353,2.0.10.353,12/06/2016,2016-12-06 __ 2:02:58,11:02:58,,female,2.0.10.248,2,2,1,2,Test,List1,2,,,,,,BlockProc,,,,,,,,,,SpeakerBlocks,,,,1,1,2,M,1,6,8,Low,1,Quie,1,TrialProc,0,8,-999999,16,654183,0,2,255,654438,StimList,7,M_1_7_con_Low_Quie.wav,1,60,2,78,60
KoreanPoliteness_F0INT_KOR,1,2,22,"<?xml version=""1.0""?>\n<Clock xmlns:dt=""urn:schemas-microsoft-com:datatypes""><Description dt:dt=""string"">E-Prime Primary Realtime Clock</Description><StartTime><Timestamp dt:dt=""int"">0</Timestamp><DateUtc dt:dt=""string"">2016-12-06T02:02:57Z</DateUtc></StartTime><FrequencyChanges><FrequencyChange><Frequency dt:dt=""r8"">2539101</Frequency><Timestamp dt:dt=""r8"">8252178452</Timestamp><Current dt:dt=""r8"">0</Current><DateUtc dt:dt=""string"">2016-12-06T02:02:57Z</DateUtc></FrequencyChange></FrequencyChanges></Clock>\n",KoreanPoliteness_F0INT_KOR-001-1,60.145,1.0.0.0,1,-337277273,Professional,2.0.10.353,2.0.10.353,12/06/2016,2016-12-06 __ 2:02:58,11:02:58,,female,2.0.10.248,2,2,1,2,Test,List1,2,,,,,,BlockProc,,,,,,,,,,SpeakerBlocks,,,,1,1,2,M,1,7,8,Low,1,Neut,2,TrialProc,0,8,-999999,26,658074,0,2,79,658153,StimList,3,M_1_3_con_Low_Neut.wav,1,23,2,79,23
KoreanPoliteness_F0INT_KOR,1,2,22,"<?xml version=""1.0""?>\n<Clock xmlns:dt=""urn:schemas-microsoft-com:datatypes""><Description dt:dt=""string"">E-Prime Primary Realtime Clock</Description><StartTime><Timestamp dt:dt=""int"">0</Timestamp><DateUtc dt:dt=""string"">2016-12-06T02:02:57Z</DateUtc></StartTime><FrequencyChanges><FrequencyChange><Frequency dt:dt=""r8"">2539101</Frequency><Timestamp dt:dt=""r8"">8252178452</Timestamp><Current dt:dt=""r8"">0</Current><DateUtc dt:dt=""string"">2016-12-06T02:02:57Z</DateUtc></FrequencyChange></FrequencyChanges></Clock>\n",KoreanPoliteness_F0INT_KOR-001-1,60.145,1.0.0.0,1,-337277273,Professional,2.0.10.353,2.0.10.353,12/06/2016,2016-12-06 __ 2:02:58,11:02:58,,female,2.0.10.248,2,2,1,2,Test,List1,2,,,,,,BlockProc,,,,,,,,,,SpeakerBlocks,,,,1,1,2,M,1,8,8,Mid,2,Quie,1,TrialProc,1,8,-999999,25,661333,0,8,162,661495,StimList,2,M_1_2_con_Mid_Quie.wav,1,18,2,80,18
KoreanPoliteness_F0INT_KOR,1,2,22,"<?xml version=""1.0""?>\n<Clock xmlns:dt=""urn:schemas-microsoft-com:datatypes""><Description dt:dt=""string"">E-Prime Primary Realtime Clock</Description><StartTime><Timestamp dt:dt=""int"">0</Timestamp><DateUtc dt:dt=""string"">2016-12-06T02:02:57Z</DateUtc></StartTime><FrequencyChanges><FrequencyChange><Frequency dt:dt=""r8"">2539101</Frequency><Timestamp dt:dt=""r8"">8252178452</Timestamp><Current dt:dt=""r8"">0</Current><DateUtc dt:dt=""string"">2016-12-06T02:02:57Z</DateUtc></FrequencyChange></FrequencyChanges></Clock>\n",KoreanPoliteness_F0INT_KOR-001-1,60.145,1.0.0.0,1,-337277273,Professional,2.0.10.353,2.0.10.353,12/06/2016,2016-12-06 __ 2:02:58,11:02:58,,female,2.0.10.248,2,2,1,2,Test,List1,2,,,,,,BlockProc,,,,,,,,,,SpeakerBlocks,,,,1,1,2,M,1,9,8,High,3,Neut,2,TrialProc,1,8,-999999,27,664874,0,8,101,664975,StimList,6,M_1_6_con_High_Neut.wav,1,47,2,81,47
KoreanPoliteness_F0INT_KOR,1,2,22,"<?xml version=""1.0""?>\n<Clock xmlns:dt=""urn:schemas-microsoft-com:datatypes""><Description dt:dt=""string"">E-Prime Primary Realtime Clock</Description><StartTime><Timestamp dt:dt=""int"">0</Timestamp><DateUtc dt:dt=""string"">2016-12-06T02:02:57Z</DateUtc></StartTime><FrequencyChanges><FrequencyChange><Frequency dt:dt=""r8"">2539101</Frequency><Timestamp dt:dt=""r8"">8252178452</Timestamp><Current dt:dt=""r8"">0</Current><DateUtc dt:dt=""string"">2016-12-06T02:02:57Z</DateUtc></FrequencyChange></FrequencyChanges></Clock>\n",KoreanPoliteness_F0INT_KOR-001-1,60.145,1.0.0.0,1,-337277273,Professional,2.0.10.353,2.0.10.353,12/06/2016,2016-12-06 __ 2:02:58,11:02:58,,female,2.0.10.248,2,2,1,2,Test,List1,2,,,,,,BlockProc,,,,,,,,,,SpeakerBlocks,,,,1,1,2,M,1,10,8,High,3,Neut,2,TrialProc,1,8,-999999,15,668732,0,8,205,668937,StimList,3,M_1_3_con_High_Neut.wav,1,20,2,82,20
KoreanPoliteness_F0INT_KOR,1,2,22,"<?xml version=""1.0""?>\n<Clock xmlns:dt=""urn:schemas-microsoft-com:datatypes""><Description dt:dt=""string"">E-Prime Primary Realtime Clock</Description><StartTime><Timestamp dt:dt=""int"">0</Timestamp><DateUtc dt:dt=""string"">2016-12-06T02:02:57Z</DateUtc></StartTime><FrequencyChanges><FrequencyChange><Frequency dt:dt=""r8"">2539101</Frequency><Timestamp dt:dt=""r8"">8252178452</Timestamp><Current dt:dt=""r8"">0</Current><DateUtc dt:dt=""string"">2016-12-06T02:02:57Z</DateUtc></FrequencyChange></FrequencyChanges></Clock>\n",KoreanPoliteness_F0INT_KOR-001-1,60.145,1.0.0.0,1,-337277273,Professional,2.0.10.353,2.0.10.353,12/06/2016,2016-12-06 __ 2:02:58,11:02:58,,female,2.0.10.248,2,2,1,2,Test,List1,2,,,,,,BlockProc,,,,,,,,,,SpeakerBlocks,,,,1,1,2,M,1,11,8,Low,1,Loud,3,TrialProc,0,8,-999999,15,672290,0,2,40,672330,StimList,6,M_1_6_con_Low_Loud.wav,1,49,2,83,49
KoreanPoliteness_F0INT_KOR,1,2,22,"<?xml version=""1.0""?>\n<Clock xmlns:dt=""urn:schemas-microsoft-com:datatypes""><Description dt:dt=""string"">E-Prime Primary Realtime Clock</Description><StartTime><Timestamp dt:dt=""int"">0</Timestamp><DateUtc dt:dt=""string"">2016-12-06T02:02:57Z</DateUtc></StartTime><FrequencyChanges><FrequencyChange><Frequency dt:dt=""r8"">2539101</Frequency><Timestamp dt:dt=""r8"">8252178452</Timestamp><Current dt:dt=""r8"">0</Current><DateUtc dt:dt=""string"">2016-12-06T02:02:57Z</DateUtc></FrequencyChange></FrequencyChanges></Clock>\n",KoreanPoliteness_F0INT_KOR-001-1,60.145,1.0.0.0,1,-337277273,Professional,2.0.10.353,2.0.10.353,12/06/2016,2016-12-06 __ 2:02:58,11:02:58,,female,2.0.10.248,2,2,1,2,Test,List1,2,,,,,,BlockProc,,,,,,,,,,SpeakerBlocks,,,,1,1,2,M,1,12,8,Mid,2,Loud,3,TrialProc,1,8,-999999,27,675366,0,8,394,675760,StimList,4,M_1_4_con_Mid_Loud.wav,1,34,2,84,34
KoreanPoliteness_F0INT_KOR,1,2,22,"<?xml version=""1.0""?>\n<Clock xmlns:dt=""urn:schemas-microsoft-com:datatypes""><Description dt:dt=""string"">E-Prime Primary Realtime Clock</Description><StartTime><Timestamp dt:dt=""int"">0</Timestamp><DateUtc dt:dt=""string"">2016-12-06T02:02:57Z</DateUtc></StartTime><FrequencyChanges><FrequencyChange><Frequency dt:dt=""r8"">2539101</Frequency><Timestamp dt:dt=""r8"">8252178452</Timestamp><Current dt:dt=""r8"">0</Current><DateUtc dt:dt=""string"">2016-12-06T02:02:57Z</DateUtc></FrequencyChange></FrequencyChanges></Clock>\n",KoreanPoliteness_F0INT_KOR-001-1,60.145,1.0.0.0,1,-337277273,Professional,2.0.10.353,2.0.10.353,12/06/2016,2016-12-06 __ 2:02:58,11:02:58,,female,2.0.10.248,2,2,1,2,Test,List1,2,,,,,,BlockProc,,,,,,,,,,SpeakerBlocks,,,,1,1,2,M,1,13,8,Low,1,Loud,3,TrialProc,0,8,-999999,21,678857,0,2,884,679741,StimList,4,M_1_4_con_Low_Loud.wav,1,31,2,85,31
KoreanPoliteness_F0INT_KOR,1,2,22,"<?xml version=""1.0""?>\n<Clock xmlns:dt=""urn:schemas-microsoft-com:datatypes""><Description dt:dt=""string"">E-Prime Primary Realtime Clock</Description><StartTime><Timestamp dt:dt=""int"">0</Timestamp><DateUtc dt:dt=""string"">2016-12-06T02:02:57Z</DateUtc></StartTime><FrequencyChanges><FrequencyChange><Frequency dt:dt=""r8"">2539101</Frequency><Timestamp dt:dt=""r8"">8252178452</Timestamp><Current dt:dt=""r8"">0</Current><DateUtc dt:dt=""string"">2016-12-06T02:02:57Z</DateUtc></FrequencyChange></FrequencyChanges></Clock>\n",KoreanPoliteness_F0INT_KOR-001-1,60.145,1.0.0.0,1,-337277273,Professional,2.0.10.353,2.0.10.353,12/06/2016,2016-12-06 __ 2:02:58,11:02:58,,female,2.0.10.248,2,2,1,2,Test,List1,2,,,,,,BlockProc,,,,,,,,,,SpeakerBlocks,,,,1,1,2,M,1,14,8,High,3,Neut,2,TrialProc,1,8,-999999,16,682931,0,8,241,683172,StimList,2,M_1_2_con_High_Neut.wav,1,11,2,86,11
KoreanPoliteness_F0INT_KOR,1,2,22,"<?xml version=""1.0""?>\n<Clock xmlns:dt=""urn:schemas-microsoft-com:datatypes""><Description dt:dt=""string"">E-Prime Primary Realtime Clock</Description><StartTime><Timestamp dt:dt=""int"">0</Timestamp><DateUtc dt:dt=""string"">2016-12-06T02:02:57Z</DateUtc></StartTime><FrequencyChanges><FrequencyChange><Frequency dt:dt=""r8"">2539101</Frequency><Timestamp dt:dt=""r8"">8252178452</Timestamp><Current dt:dt=""r8"">0</Current><DateUtc dt:dt=""string"">2016-12-06T02:02:57Z</DateUtc></FrequencyChange></FrequencyChanges></Clock>\n",KoreanPoliteness_F0INT_KOR-001-1,60.145,1.0.0.0,1,-337277273,Professional,2.0.10.353,2.0.10.353,12/06/2016,2016-12-06 __ 2:02:58,11:02:58,,female,2.0.10.248,2,2,1,2,Test,List1,2,,,,,,BlockProc,,,,,,,,,,SpeakerBlocks,,,,1,1,2,M,1,15,8,Low,1,Neut,2,TrialProc,0,8,-999999,18,686206,0,2,282,686488,StimList,4,M_1_4_con_Low_Neut.wav,1,32,2,87,32
KoreanPoliteness_F0INT_KOR,1,2,22,"<?xml version=""1.0""?>\n<Clock xmlns:dt=""urn:schemas-microsoft-com:datatypes""><Description dt:dt=""string"">E-Prime Primary Realtime Clock</Description><StartTime><Timestamp dt:dt=""int"">0</Timestamp><DateUtc dt:dt=""string"">2016-12-06T02:02:57Z</DateUtc></StartTime><FrequencyChanges><FrequencyChange><Frequency dt:dt=""r8"">2539101</Frequency><Timestamp dt:dt=""r8"">8252178452</Timestamp><Current dt:dt=""r8"">0</Current><DateUtc dt:dt=""string"">2016-12-06T02:02:57Z</DateUtc></FrequencyChange></FrequencyChanges></Clock>\n",KoreanPoliteness_F0INT_KOR-001-1,60.145,1.0.0.0,1,-337277273,Professional,2.0.10.353,2.0.10.353,12/06/2016,2016-12-06 __ 2:02:58,11:02:58,,female,2.0.10.248,2,2,1,2,Test,List1,2,,,,,,BlockProc,,,,,,,,,,SpeakerBlocks,,,,1,1,2,M,1,16,8,Low,1,Neut,2,TrialProc,0,8,-999999,20,689798,0,2,463,690261,StimList,6,M_1_6_con_Low_Neut.wav,1,50,2,88,50
KoreanPoliteness_F0INT_KOR,1,2,22,"<?xml version=""1.0""?>\n<Clock xmlns:dt=""urn:schemas-microsoft-com:datatypes""><Description dt:dt=""string"">E-Prime Primary Realtime Clock</Description><StartTime><Timestamp dt:dt=""int"">0</Timestamp><DateUtc dt:dt=""string"">2016-12-06T02:02:57Z</DateUtc></StartTime><FrequencyChanges><FrequencyChange><Frequency dt:dt=""r8"">2539101</Frequency><Timestamp dt:dt=""r8"">8252178452</Timestamp><Current dt:dt=""r8"">0</Current><DateUtc dt:dt=""string"">2016-12-06T02:02:57Z</DateUtc></FrequencyChange></FrequencyChanges></Clock>\n",KoreanPoliteness_F0INT_KOR-001-1,60.145,1.0.0.0,1,-337277273,Professional,2.0.10.353,2.0.10.353,12/06/2016,2016-12-06 __ 2:02:58,11:02:58,,female,2.0.10.248,2,2,1,2,Test,List1,2,,,,,,BlockProc,,,,,,,,,,SpeakerBlocks,,,,1,1,2,M,1,17,8,Low,1,Loud,3,TrialProc,0,8,-999999,14,693439,0,2,278,693717,StimList,2,M_1_2_con_Low_Loud.wav,1,13,2,89,13
KoreanPoliteness_F0INT_KOR,1,2,22,"<?xml version=""1.0""?>\n<Clock xmlns:dt=""urn:schemas-microsoft-com:datatypes""><Description dt:dt=""string"">E-Prime Primary Realtime Clock</Description><StartTime><Timestamp dt:dt=""int"">0</Timestamp><DateUtc dt:dt=""string"">2016-12-06T02:02:57Z</DateUtc></StartTime><FrequencyChanges><FrequencyChange><Frequency dt:dt=""r8"">2539101</Frequency><Timestamp dt:dt=""r8"">8252178452</Timestamp><Current dt:dt=""r8"">0</Current><DateUtc dt:dt=""string"">2016-12-06T02:02:57Z</DateUtc></FrequencyChange></FrequencyChanges></Clock>\n",KoreanPoliteness_F0INT_KOR-001-1,60.145,1.0.0.0,1,-337277273,Professional,2.0.10.353,2.0.10.353,12/06/2016,2016-12-06 __ 2:02:58,11:02:58,,female,2.0.10.248,2,2,1,2,Test,List1,2,,,,,,BlockProc,,,,,,,,,,SpeakerBlocks,,,,1,1,2,M,1,18,8,High,3,Quie,1,TrialProc,1,8,-999999,18,696964,0,8,177,697141,StimList,2,M_1_2_con_High_Quie.wav,1,12,2,90,12
KoreanPoliteness_F0INT_KOR,1,2,22,"<?xml version=""1.0""?>\n<Clock xmlns:dt=""urn:schemas-microsoft-com:datatypes""><Description dt:dt=""string"">E-Prime Primary Realtime Clock</Description><StartTime><Timestamp dt:dt=""int"">0</Timestamp><DateUtc dt:dt=""string"">2016-12-06T02:02:57Z</DateUtc></StartTime><FrequencyChanges><FrequencyChange><Frequency dt:dt=""r8"">2539101</Frequency><Timestamp dt:dt=""r8"">8252178452</Timestamp><Current dt:dt=""r8"">0</Current><DateUtc dt:dt=""string"">2016-12-06T02:02:57Z</DateUtc></FrequencyChange></FrequencyChanges></Clock>\n",KoreanPoliteness_F0INT_KOR-001-1,60.145,1.0.0.0,1,-337277273,Professional,2.0.10.353,2.0.10.353,12/06/2016,2016-12-06 __ 2:02:58,11:02:58,,female,2.0.10.248,2,2,1,2,Test,List1,2,,,,,,BlockProc,,,,,,,,,,SpeakerBlocks,,,,1,1,2,M,1,19,8,Low,1,Quie,1,TrialProc,1,8,-999999,13,701719,0,8,47,701766,StimList,5,M_1_5_con_Low_Quie.wav,1,42,2,91,42
KoreanPoliteness_F0INT_KOR,1,2,22,"<?xml version=""1.0""?>\n<Clock xmlns:dt=""urn:schemas-microsoft-com:datatypes""><Description dt:dt=""string"">E-Prime Primary Realtime Clock</Description><StartTime><Timestamp dt:dt=""int"">0</Timestamp><DateUtc dt:dt=""string"">2016-12-06T02:02:57Z</DateUtc></StartTime><FrequencyChanges><FrequencyChange><Frequency dt:dt=""r8"">2539101</Frequency><Timestamp dt:dt=""r8"">8252178452</Timestamp><Current dt:dt=""r8"">0</Current><DateUtc dt:dt=""string"">2016-12-06T02:02:57Z</DateUtc></FrequencyChange></FrequencyChanges></Clock>\n",KoreanPoliteness_F0INT_KOR-001-1,60.145,1.0.0.0,1,-337277273,Professional,2.0.10.353,2.0.10.353,12/06/2016,2016-12-06 __ 2:02:58,11:02:58,,female,2.0.10.248,2,2,1,2,Test,List1,2,,,,,,BlockProc,,,,,,,,,,SpeakerBlocks,,,,1,1,2,M,1,20,8,Low,1,Neut,2,TrialProc,1,8,-999999,17,705244,0,8,295,705539,StimList,1,M_1_1_con_Low_Neut.wav,1,5,2,92,5
KoreanPoliteness_F0INT_KOR,1,2,22,"<?xml version=""1.0""?>\n<Clock xmlns:dt=""urn:schemas-microsoft-com:datatypes""><Description dt:dt=""string"">E-Prime Primary Realtime Clock</Description><StartTime><Timestamp dt:dt=""int"">0</Timestamp><DateUtc dt:dt=""string"">2016-12-06T02:02:57Z</DateUtc></StartTime><FrequencyChanges><FrequencyChange><Frequency dt:dt=""r8"">2539101</Frequency><Timestamp dt:dt=""r8"">8252178452</Timestamp><Current dt:dt=""r8"">0</Current><DateUtc dt:dt=""string"">2016-12-06T02:02:57Z</DateUtc></FrequencyChange></FrequencyChanges></Clock>\n",KoreanPoliteness_F0INT_KOR-001-1,60.145,1.0.0.0,1,-337277273,Professional,2.0.10.353,2.0.10.353,12/06/2016,2016-12-06 __ 2:02:58,11:02:58,,female,2.0.10.248,2,2,1,2,Test,List1,2,,,,,,BlockProc,,,,,,,,,,SpeakerBlocks,,,,1,1,2,M,1,21,8,Mid,2,Quie,1,TrialProc,1,8,-999999,24,708519,0,8,437,708956,StimList,8,M_1_8_con_Mid_Quie.wav,1,72,2,93,72
KoreanPoliteness_F0INT_KOR,1,2,22,"<?xml version=""1.0""?>\n<Clock xmlns:dt=""urn:schemas-microsoft-com:datatypes""><Description dt:dt=""string"">E-Prime Primary Realtime Clock</Description><StartTime><Timestamp dt:dt=""int"">0</Timestamp><DateUtc dt:dt=""string"">2016-12-06T02:02:57Z</DateUtc></StartTime><FrequencyChanges><FrequencyChange><Frequency dt:dt=""r8"">2539101</Frequency><Timestamp dt:dt=""r8"">8252178452</Timestamp><Current dt:dt=""r8"">0</Current><DateUtc dt:dt=""string"">2016-12-06T02:02:57Z</DateUtc></FrequencyChange></FrequencyChanges></Clock>\n",KoreanPoliteness_F0INT_KOR-001-1,60.145,1.0.0.0,1,-337277273,Professional,2.0.10.353,2.0.10.353,12/06/2016,2016-12-06 __ 2:02:58,11:02:58,,female,2.0.10.248,2,2,1,2,Test,List1,2,,,,,,BlockProc,,,,,,,,,,SpeakerBlocks,,,,1,1,2,M,1,22,8,Mid,2,Loud,3,TrialProc,0,8,-999999,14,712160,0,2,493,712653,StimList,2,M_1_2_con_Mid_Loud.wav,1,16,2,94,16
KoreanPoliteness_F0INT_KOR,1,2,22,"<?xml version=""1.0""?>\n<Clock xmlns:dt=""urn:schemas-microsoft-com:datatypes""><Description dt:dt=""string"">E-Prime Primary Realtime Clock</Description><StartTime><Timestamp dt:dt=""int"">0</Timestamp><DateUtc dt:dt=""string"">2016-12-06T02:02:57Z</DateUtc></StartTime><FrequencyChanges><FrequencyChange><Frequency dt:dt=""r8"">2539101</Frequency><Timestamp dt:dt=""r8"">8252178452</Timestamp><Current dt:dt=""r8"">0</Current><DateUtc dt:dt=""string"">2016-12-06T02:02:57Z</DateUtc></FrequencyChange></FrequencyChanges></Clock>\n",KoreanPoliteness_F0INT_KOR-001-1,60.145,1.0.0.0,1,-337277273,Professional,2.0.10.353,2.0.10.353,12/06/2016,2016-12-06 __ 2:02:58,11:02:58,,female,2.0.10.248,2,2,1,2,Test,List1,2,,,,,,BlockProc,,,,,,,,,,SpeakerBlocks,,,,1,1,2,M,1,23,8,High,3,Quie,1,TrialProc,0,8,-999999,29,715885,0,2,661,716546,StimList,7,M_1_7_con_High_Quie.wav,1,57,2,95,57
KoreanPoliteness_F0INT_KOR,1,2,22,"<?xml version=""1.0""?>\n<Clock xmlns:dt=""urn:schemas-microsoft-com:datatypes""><Description dt:dt=""string"">E-Prime Primary Realtime Clock</Description><StartTime><Timestamp dt:dt=""int"">0</Timestamp><DateUtc dt:dt=""string"">2016-12-06T02:02:57Z</DateUtc></StartTime><FrequencyChanges><FrequencyChange><Frequency dt:dt=""r8"">2539101</Frequency><Timestamp dt:dt=""r8"">8252178452</Timestamp><Current dt:dt=""r8"">0</Current><DateUtc dt:dt=""string"">2016-12-06T02:02:57Z</DateUtc></FrequencyChange></FrequencyChanges></Clock>\n",KoreanPoliteness_F0INT_KOR-001-1,60.145,1.0.0.0,1,-337277273,Professional,2.0.10.353,2.0.10.353,12/06/2016,2016-12-06 __ 2:02:58,11:02:58,,female,2.0.10.248,2,2,1,2,Test,List1,2,,,,,,BlockProc,,,,,,,,,,SpeakerBlocks,,,,1,1,2,M,1,24,8,High,3,Loud,3,TrialProc,1,8,-999999,16,719542,0,8,1381,720923,StimList,8,M_1_8_con_High_Loud.wav,1,64,2,96,64
KoreanPoliteness_F0INT_KOR,1,2,22,"<?xml version=""1.0""?>\n<Clock xmlns:dt=""urn:schemas-microsoft-com:datatypes""><Description dt:dt=""string"">E-Prime Primary Realtime Clock</Description><StartTime><Timestamp dt:dt=""int"">0</Timestamp><DateUtc dt:dt=""string"">2016-12-06T02:02:57Z</DateUtc></StartTime><FrequencyChanges><FrequencyChange><Frequency dt:dt=""r8"">2539101</Frequency><Timestamp dt:dt=""r8"">8252178452</Timestamp><Current dt:dt=""r8"">0</Current><DateUtc dt:dt=""string"">2016-12-06T02:02:57Z</DateUtc></FrequencyChange></FrequencyChanges></Clock>\n",KoreanPoliteness_F0INT_KOR-001-1,60.145,1.0.0.0,1,-337277273,Professional,2.0.10.353,2.0.10.353,12/06/2016,2016-12-06 __ 2:02:58,11:02:58,,female,2.0.10.248,2,2,1,2,Test,List1,2,,,,,,BlockProc,,,,,,,,,,SpeakerBlocks,,,,1,1,2,M,1,25,8,Low,1,Neut,2,TrialProc,0,8,-999999,20,723915,0,2,338,724253,StimList,8,M_1_8_con_Low_Neut.wav,1,68,2,97,68
KoreanPoliteness_F0INT_KOR,1,2,22,"<?xml version=""1.0""?>\n<Clock xmlns:dt=""urn:schemas-microsoft-com:datatypes""><Description dt:dt=""string"">E-Prime Primary Realtime Clock</Description><StartTime><Timestamp dt:dt=""int"">0</Timestamp><DateUtc dt:dt=""string"">2016-12-06T02:02:57Z</DateUtc></StartTime><FrequencyChanges><FrequencyChange><Frequency dt:dt=""r8"">2539101</Frequency><Timestamp dt:dt=""r8"">8252178452</Timestamp><Current dt:dt=""r8"">0</Current><DateUtc dt:dt=""string"">2016-12-06T02:02:57Z</DateUtc></FrequencyChange></FrequencyChanges></Clock>\n",KoreanPoliteness_F0INT_KOR-001-1,60.145,1.0.0.0,1,-337277273,Professional,2.0.10.353,2.0.10.353,12/06/2016,2016-12-06 __ 2:02:58,11:02:58,,female,2.0.10.248,2,2,1,2,Test,List1,2,,,,,,BlockProc,,,,,,,,,,SpeakerBlocks,,,,1,1,2,M,1,26,8,Mid,2,Quie,1,TrialProc,1,8,-999999,22,727939,0,8,136,728075,StimList,3,M_1_3_con_Mid_Quie.wav,1,27,2,98,27
KoreanPoliteness_F0INT_KOR,1,2,22,"<?xml version=""1.0""?>\n<Clock xmlns:dt=""urn:schemas-microsoft-com:datatypes""><Description dt:dt=""string"">E-Prime Primary Realtime Clock</Description><StartTime><Timestamp dt:dt=""int"">0</Timestamp><DateUtc dt:dt=""string"">2016-12-06T02:02:57Z</DateUtc></StartTime><FrequencyChanges><FrequencyChange><Frequency dt:dt=""r8"">2539101</Frequency><Timestamp dt:dt=""r8"">8252178452</Timestamp><Current dt:dt=""r8"">0</Current><DateUtc dt:dt=""string"">2016-12-06T02:02:57Z</DateUtc></FrequencyChange></FrequencyChanges></Clock>\n",KoreanPoliteness_F0INT_KOR-001-1,60.145,1.0.0.0,1,-337277273,Professional,2.0.10.353,2.0.10.353,12/06/2016,2016-12-06 __ 2:02:58,11:02:58,,female,2.0.10.248,2,2,1,2,Test,List1,2,,,,,,BlockProc,,,,,,,,,,SpeakerBlocks,,,,1,1,2,M,1,27,8,Mid,2,Neut,2,TrialProc,1,8,-999999,28,731164,0,8,362,731526,StimList,8,M_1_8_con_Mid_Neut.wav,1,71,2,99,71
KoreanPoliteness_F0INT_KOR,1,2,22,"<?xml version=""1.0""?>\n<Clock xmlns:dt=""urn:schemas-microsoft-com:datatypes""><Description dt:dt=""string"">E-Prime Primary Realtime Clock</Description><StartTime><Timestamp dt:dt=""int"">0</Timestamp><DateUtc dt:dt=""string"">2016-12-06T02:02:57Z</DateUtc></StartTime><FrequencyChanges><FrequencyChange><Frequency dt:dt=""r8"">2539101</Frequency><Timestamp dt:dt=""r8"">8252178452</Timestamp><Current dt:dt=""r8"">0</Current><DateUtc dt:dt=""string"">2016-12-06T02:02:57Z</DateUtc></FrequencyChange></FrequencyChanges></Clock>\n",KoreanPoliteness_F0INT_KOR-001-1,60.145,1.0.0.0,1,-337277273,Professional,2.0.10.353,2.0.10.353,12/06/2016,2016-12-06 __ 2:02:58,11:02:58,,female,2.0.10.248,2,2,1,2,Test,List1,2,,,,,,BlockProc,,,,,,,,,,SpeakerBlocks,,,,1,1,2,M,1,28,8,Low,1,Loud,3,TrialProc,1,8,-999999,19,735803,0,8,246,736049,StimList,5,M_1_5_con_Low_Loud.wav,1,40,2,100,40
KoreanPoliteness_F0INT_KOR,1,2,22,"<?xml version=""1.0""?>\n<Clock xmlns:dt=""urn:schemas-microsoft-com:datatypes""><Description dt:dt=""string"">E-Prime Primary Realtime Clock</Description><StartTime><Timestamp dt:dt=""int"">0</Timestamp><DateUtc dt:dt=""string"">2016-12-06T02:02:57Z</DateUtc></StartTime><FrequencyChanges><FrequencyChange><Frequency dt:dt=""r8"">2539101</Frequency><Timestamp dt:dt=""r8"">8252178452</Timestamp><Current dt:dt=""r8"">0</Current><DateUtc dt:dt=""string"">2016-12-06T02:02:57Z</DateUtc></FrequencyChange></FrequencyChanges></Clock>\n",KoreanPoliteness_F0INT_KOR-001-1,60.145,1.0.0.0,1,-337277273,Professional,2.0.10.353,2.0.10.353,12/06/2016,2016-12-06 __ 2:02:58,11:02:58,,female,2.0.10.248,2,2,1,2,Test,List1,2,,,,,,BlockProc,,,,,,,,,,SpeakerBlocks,,,,1,1,2,M,1,29,8,Mid,2,Quie,1,TrialProc,0,8,-999999,17,739212,0,2,428,739640,StimList,1,M_1_1_con_Mid_Quie.wav,1,9,2,101,9
KoreanPoliteness_F0INT_KOR,1,2,22,"<?xml version=""1.0""?>\n<Clock xmlns:dt=""urn:schemas-microsoft-com:datatypes""><Description dt:dt=""string"">E-Prime Primary Realtime Clock</Description><StartTime><Timestamp dt:dt=""int"">0</Timestamp><DateUtc dt:dt=""string"">2016-12-06T02:02:57Z</DateUtc></StartTime><FrequencyChanges><FrequencyChange><Frequency dt:dt=""r8"">2539101</Frequency><Timestamp dt:dt=""r8"">8252178452</Timestamp><Current dt:dt=""r8"">0</Current><DateUtc dt:dt=""string"">2016-12-06T02:02:57Z</DateUtc></FrequencyChange></FrequencyChanges></Clock>\n",KoreanPoliteness_F0INT_KOR-001-1,60.145,1.0.0.0,1,-337277273,Professional,2.0.10.353,2.0.10.353,12/06/2016,2016-12-06 __ 2:02:58,11:02:58,,female,2.0.10.248,2,2,1,2,Test,List1,2,,,,,,BlockProc,,,,,,,,,,SpeakerBlocks,,,,1,1,2,M,1,30,8,Low,1,Loud,3,TrialProc,0,8,-999999,27,743302,0,2,762,744064,StimList,3,M_1_3_con_Low_Loud.wav,1,22,2,102,22
KoreanPoliteness_F0INT_KOR,1,2,22,"<?xml version=""1.0""?>\n<Clock xmlns:dt=""urn:schemas-microsoft-com:datatypes""><Description dt:dt=""string"">E-Prime Primary Realtime Clock</Description><StartTime><Timestamp dt:dt=""int"">0</Timestamp><DateUtc dt:dt=""string"">2016-12-06T02:02:57Z</DateUtc></StartTime><FrequencyChanges><FrequencyChange><Frequency dt:dt=""r8"">2539101</Frequency><Timestamp dt:dt=""r8"">8252178452</Timestamp><Current dt:dt=""r8"">0</Current><DateUtc dt:dt=""string"">2016-12-06T02:02:57Z</DateUtc></FrequencyChange></FrequencyChanges></Clock>\n",KoreanPoliteness_F0INT_KOR-001-1,60.145,1.0.0.0,1,-337277273,Professional,2.0.10.353,2.0.10.353,12/06/2016,2016-12-06 __ 2:02:58,11:02:58,,female,2.0.10.248,2,2,1,2,Test,List1,2,,,,,,BlockProc,,,,,,,,,,SpeakerBlocks,,,,1,1,2,M,1,31,8,High,3,Quie,1,TrialProc,0,8,-999999,26,747774,0,2,390,748164,StimList,3,M_1_3_con_High_Quie.wav,1,21,2,103,21
KoreanPoliteness_F0INT_KOR,1,2,22,"<?xml version=""1.0""?>\n<Clock xmlns:dt=""urn:schemas-microsoft-com:datatypes""><Description dt:dt=""string"">E-Prime Primary Realtime Clock</Description><StartTime><Timestamp dt:dt=""int"">0</Timestamp><DateUtc dt:dt=""string"">2016-12-06T02:02:57Z</DateUtc></StartTime><FrequencyChanges><FrequencyChange><Frequency dt:dt=""r8"">2539101</Frequency><Timestamp dt:dt=""r8"">8252178452</Timestamp><Current dt:dt=""r8"">0</Current><DateUtc dt:dt=""string"">2016-12-06T02:02:57Z</DateUtc></FrequencyChange></FrequencyChanges></Clock>\n",KoreanPoliteness_F0INT_KOR-001-1,60.145,1.0.0.0,1,-337277273,Professional,2.0.10.353,2.0.10.353,12/06/2016,2016-12-06 __ 2:02:58,11:02:58,,female,2.0.10.248,2,2,1,2,Test,List1,2,,,,,,BlockProc,,,,,,,,,,SpeakerBlocks,,,,1,1,2,M,1,32,8,Mid,2,Neut,2,TrialProc,0,8,-999999,14,751382,0,2,839,752221,StimList,2,M_1_2_con_Mid_Neut.wav,1,17,2,104,17
KoreanPoliteness_F0INT_KOR,1,2,22,"<?xml version=""1.0""?>\n<Clock xmlns:dt=""urn:schemas-microsoft-com:datatypes""><Description dt:dt=""string"">E-Prime Primary Realtime Clock</Description><StartTime><Timestamp dt:dt=""int"">0</Timestamp><DateUtc dt:dt=""string"">2016-12-06T02:02:57Z</DateUtc></StartTime><FrequencyChanges><FrequencyChange><Frequency dt:dt=""r8"">2539101</Frequency><Timestamp dt:dt=""r8"">8252178452</Timestamp><Current dt:dt=""r8"">0</Current><DateUtc dt:dt=""string"">2016-12-06T02:02:57Z</DateUtc></FrequencyChange></FrequencyChanges></Clock>\n",KoreanPoliteness_F0INT_KOR-001-1,60.145,1.0.0.0,1,-337277273,Professional,2.0.10.353,2.0.10.353,12/06/2016,2016-12-06 __ 2:02:58,11:02:58,,female,2.0.10.248,2,2,1,2,Test,List1,2,,,,,,BlockProc,,,,,,,,,,SpeakerBlocks,,,,1,1,2,M,1,33,8,High,3,Quie,1,TrialProc,1,8,-999999,27,755622,0,8,952,756574,StimList,6,M_1_6_con_High_Quie.wav,1,48,2,105,48
KoreanPoliteness_F0INT_KOR,1,2,22,"<?xml version=""1.0""?>\n<Clock xmlns:dt=""urn:schemas-microsoft-com:datatypes""><Description dt:dt=""string"">E-Prime Primary Realtime Clock</Description><StartTime><Timestamp dt:dt=""int"">0</Timestamp><DateUtc dt:dt=""string"">2016-12-06T02:02:57Z</DateUtc></StartTime><FrequencyChanges><FrequencyChange><Frequency dt:dt=""r8"">2539101</Frequency><Timestamp dt:dt=""r8"">8252178452</Timestamp><Current dt:dt=""r8"">0</Current><DateUtc dt:dt=""string"">2016-12-06T02:02:57Z</DateUtc></FrequencyChange></FrequencyChanges></Clock>\n",KoreanPoliteness_F0INT_KOR-001-1,60.145,1.0.0.0,1,-337277273,Professional,2.0.10.353,2.0.10.353,12/06/2016,2016-12-06 __ 2:02:58,11:02:58,,female,2.0.10.248,2,2,1,2,Test,List1,2,,,,,,BlockProc,,,,,,,,,,SpeakerBlocks,,,,1,1,2,M,1,34,8,High,3,Loud,3,TrialProc,0,8,-999999,17,759812,0,2,995,760807,StimList,7,M_1_7_con_High_Loud.wav,1,55,2,106,55
KoreanPoliteness_F0INT_KOR,1,2,22,"<?xml version=""1.0""?>\n<Clock xmlns:dt=""urn:schemas-microsoft-com:datatypes""><Description dt:dt=""string"">E-Prime Primary Realtime Clock</Description><StartTime><Timestamp dt:dt=""int"">0</Timestamp><DateUtc dt:dt=""string"">2016-12-06T02:02:57Z</DateUtc></StartTime><FrequencyChanges><FrequencyChange><Frequency dt:dt=""r8"">2539101</Frequency><Timestamp dt:dt=""r8"">8252178452</Timestamp><Current dt:dt=""r8"">0</Current><DateUtc dt:dt=""string"">2016-12-06T02:02:57Z</DateUtc></FrequencyChange></FrequencyChanges></Clock>\n",KoreanPoliteness_F0INT_KOR-001-1,60.145,1.0.0.0,1,-337277273,Professional,2.0.10.353,2.0.10.353,12/06/2016,2016-12-06 __ 2:02:58,11:02:58,,female,2.0.10.248,2,2,1,2,Test,List1,2,,,,,,BlockProc,,,,,,,,,,SpeakerBlocks,,,,1,1,2,M,1,35,8,Mid,2,Quie,1,TrialProc,0,8,-999999,14,763970,0,2,363,764333,StimList,7,M_1_7_con_Mid_Quie.wav,1,63,2,107,63
KoreanPoliteness_F0INT_KOR,1,2,22,"<?xml version=""1.0""?>\n<Clock xmlns:dt=""urn:schemas-microsoft-com:datatypes""><Description dt:dt=""string"">E-Prime Primary Realtime Clock</Description><StartTime><Timestamp dt:dt=""int"">0</Timestamp><DateUtc dt:dt=""string"">2016-12-06T02:02:57Z</DateUtc></StartTime><FrequencyChanges><FrequencyChange><Frequency dt:dt=""r8"">2539101</Frequency><Timestamp dt:dt=""r8"">8252178452</Timestamp><Current dt:dt=""r8"">0</Current><DateUtc dt:dt=""string"">2016-12-06T02:02:57Z</DateUtc></FrequencyChange></FrequencyChanges></Clock>\n",KoreanPoliteness_F0INT_KOR-001-1,60.145,1.0.0.0,1,-337277273,Professional,2.0.10.353,2.0.10.353,12/06/2016,2016-12-06 __ 2:02:58,11:02:58,,female,2.0.10.248,2,2,1,2,Test,List1,2,,,,,,BlockProc,,,,,,,,,,SpeakerBlocks,,,,1,1,2,M,1,36,8,Mid,2,Quie,1,TrialProc,1,8,-999999,24,768541,0,8,85,768626,StimList,5,M_1_5_con_Mid_Quie.wav,1,45,2,108,45
